Timestamp,Gyro_X_dps,Gyro_Y_dps,Gyro_Z_dps,Accel_X_mps2,Accel_Y_mps2,Accel_Z_mps2
0.005493,0.465393,-0.320435,-0.034358,-0.095202,8.247849,4.881034
0.021162,0.442505,-0.190735,-0.003840,-0.053888,8.270601,4.859479
0.036914,0.396729,-0.389099,0.026677,-0.095202,8.306526,4.846905
0.052735,0.457764,-0.274658,0.095342,-0.113165,8.299341,4.854689
0.068311,0.366211,-0.259399,0.179265,-0.045505,8.270601,4.821757
0.084469,0.389099,-0.297546,0.041936,-0.075443,8.296947,4.852293
0.100577,0.205994,-0.244141,0.080083,-0.044308,8.274793,4.853491
0.116492,0.343323,-0.244141,0.080083,-0.041314,8.298742,4.858281
0.132346,0.511169,-0.289917,-0.011470,-0.058079,8.300539,4.843911
0.148242,0.328064,-0.221252,0.011418,-0.046104,8.255632,4.869059
0.164143,0.305176,-0.328064,0.003789,-0.091011,8.262218,4.848701
0.180158,0.404358,-0.427246,0.087712,-0.092807,8.291557,4.867861
0.196194,0.282288,-0.259399,0.034307,-0.062869,8.284971,4.721167
0.212295,0.389099,-0.152588,-0.034358,-0.063468,8.303533,4.866664
0.228386,0.419617,-0.274658,0.057195,-0.038320,8.143066,4.872053
0.244363,0.419617,-0.236511,-0.064875,-0.035925,8.252639,4.886423
0.263190,0.404358,-0.282288,-0.041987,-0.083826,8.288564,4.726555
0.279148,0.450134,-0.305176,0.041936,-0.064067,8.288564,4.846306
0.295136,0.305176,-0.175476,0.186895,-0.035925,8.296947,4.852892
0.310956,0.312805,-0.320435,0.034307,-0.056283,8.426277,4.860077
0.327063,0.366211,-0.122070,0.019048,-0.016765,8.288564,4.849899
0.342762,0.442505,-0.175476,0.034307,-0.103585,8.297545,4.847504
0.358443,0.373840,-0.205994,-0.003840,-0.074844,8.290958,4.848103
0.374176,0.236511,-0.282288,-0.026729,-0.052690,8.280181,4.863071
0.389773,0.396729,-0.381470,-0.034358,-0.085622,8.274194,4.852892
0.405445,0.228882,-0.221252,0.095342,-0.043110,8.302335,4.855288
0.421021,0.411987,-0.228882,0.034307,-0.052690,8.276588,4.874448
0.436644,0.358582,-0.228882,0.011418,-0.048499,8.293953,4.868460
0.452316,0.305176,-0.328064,0.072454,-0.058079,8.294552,4.855288
0.468006,0.366211,-0.152588,-0.019099,-0.091011,8.296348,4.853491
0.483936,0.411987,-0.259399,-0.019099,-0.045505,8.253238,4.836127
0.499865,0.297546,-0.396729,0.003789,-0.077838,8.275392,4.837924
0.515769,0.251770,-0.244141,-0.011470,-0.069456,8.283175,4.846306
0.531687,0.381470,-0.190735,0.049565,-0.057480,8.275990,4.867262
0.547518,0.404358,-0.251770,0.049565,-0.069456,8.284971,4.849300
0.563190,0.450134,-0.221252,0.019048,-0.048499,8.143066,4.866065
0.580682,0.251770,-0.289917,-0.064875,-0.051493,8.268207,4.853491
0.600577,0.198364,-0.198364,0.034307,-0.063468,8.267009,4.838522
0.617018,0.305176,-0.251770,0.011418,-0.067061,8.299940,4.854090
0.635544,0.244141,-0.061035,0.087712,-0.055684,8.320298,4.841516
0.653257,0.289917,-0.289917,0.019048,-0.043709,8.268207,4.848103
0.669007,0.343323,-0.312805,0.057195,-0.070054,8.277187,4.841516
0.686125,0.320435,-0.450134,0.003789,-0.089813,8.298742,4.845109
0.702160,0.373840,-0.335693,0.026677,-0.063468,8.274194,4.857084
0.721589,0.358582,-0.190735,0.072454,-0.044907,8.284372,4.852892
0.737478,0.373840,-0.099182,0.057195,-0.062271,8.286768,4.857084
0.753291,0.236511,-0.152588,-0.072505,-0.029339,8.272996,4.869658
0.768897,0.282288,-0.175476,-0.118281,-0.065863,8.285570,4.860676
0.785019,0.457764,-0.320435,-0.041987,-0.059277,8.280181,4.706198
0.801240,0.396729,-0.183105,-0.080134,-0.078437,8.290360,4.847504
0.816935,0.434875,-0.320435,0.026677,-0.063468,8.289163,4.851096
0.832816,0.236511,-0.122070,0.041936,-0.036524,8.429870,4.897200
0.848421,0.297546,-0.305176,0.087712,-0.051493,8.281978,4.860676
0.864265,0.396729,-0.259399,0.057195,-0.068857,8.133487,4.861874
0.879991,0.205994,-0.335693,0.072454,-0.064067,8.283773,4.870256
0.896014,0.366211,-0.244141,-0.057246,-0.071252,8.255632,4.860077
0.911651,0.335693,-0.350952,-0.041987,-0.076042,8.281978,4.853491
0.927460,0.396729,-0.297546,0.034307,-0.080233,8.272397,4.854689
0.943116,0.495911,-0.267029,-0.003840,-0.102986,8.289163,4.849899
0.959028,0.244141,-0.267029,0.102971,-0.078437,8.280780,4.848103
0.974635,0.450134,-0.244141,0.118230,-0.058678,8.294552,4.842714
0.990605,0.320435,-0.213623,0.011418,-0.032932,8.288564,4.865466
1.006270,0.411987,-0.343323,-0.034358,-0.037123,8.287965,4.714580
1.021965,0.404358,-0.251770,-0.080134,-0.037123,8.283773,4.718771
1.037991,0.259399,-0.282288,0.049565,-0.065264,8.264614,4.851695
1.053584,0.350952,-0.320435,-0.186946,-0.078437,8.289163,4.869059
1.069147,0.289917,-0.350952,0.011418,-0.062271,8.269403,4.873849
1.085300,0.251770,-0.312805,-0.011470,-0.099992,8.426876,4.860676
1.101075,0.244141,-0.289917,0.125859,-0.062271,8.305329,4.881034
1.116738,0.389099,-0.358582,-0.026729,-0.062271,8.270601,4.863071
1.132412,0.350952,-0.137329,0.072454,-0.062271,8.293953,4.860077
1.148480,0.236511,-0.144958,-0.087764,-0.046104,8.287965,4.854090
1.164426,0.381470,-0.335693,0.034307,-0.068258,8.276588,4.851695
1.180526,0.282288,-0.267029,0.064824,-0.027543,8.321495,4.854090
1.196551,0.312805,-0.152588,0.057195,-0.077239,8.269403,4.840319
1.212521,0.404358,-0.282288,-0.019099,-0.046703,8.132289,4.852892
1.228285,0.221252,-0.328064,0.003789,-0.046703,8.286768,4.854090
1.244097,0.526428,-0.274658,0.011418,-0.089813,8.272996,4.848103
1.259764,0.328064,-0.213623,0.049565,-0.065863,8.280780,4.840319
1.275466,0.251770,-0.312805,0.011418,-0.056283,8.281978,4.857683
1.291060,0.396729,-0.350952,0.049565,-0.058079,8.293354,4.831936
1.306762,0.167847,-0.167847,0.072454,-0.060474,8.273595,4.853491
1.322334,0.427246,-0.335693,0.087712,-0.076042,8.304730,4.837325
1.337970,0.106812,-0.282288,0.156377,-0.049098,8.281978,4.864269
1.353605,0.450134,-0.289917,-0.041987,-0.053289,8.283175,4.856485
1.369235,0.457764,-0.328064,-0.026729,-0.038320,8.294552,4.856485
1.385092,0.312805,-0.251770,-0.133540,-0.062869,8.287366,4.850497
1.401363,0.373840,-0.381470,-0.110652,-0.081431,8.280780,5.006773
1.417458,0.396729,-0.175476,0.034307,-0.088017,8.258626,4.868460
1.433629,0.350952,-0.312805,0.011418,-0.045505,8.286169,4.845707
1.449477,0.289917,-0.312805,0.034307,-0.070653,8.276588,4.848701
1.465149,0.427246,-1.953125,0.072454,-0.062271,8.287366,4.831936
1.481120,0.411987,-0.320435,0.019048,-0.066462,8.274793,4.864269
1.496808,0.305176,0.000000,-0.011470,-0.073048,8.297545,4.840319
1.512444,0.396729,-0.267029,0.026677,-0.038919,8.284372,4.852892
1.528212,0.373840,-0.228882,0.049565,-0.056882,8.313711,4.850497
1.544138,0.343323,-0.190735,0.019048,-0.054487,8.257428,4.837924
1.559832,0.221252,-0.190735,0.125859,-0.067659,8.291557,4.845707
1.575440,0.282288,-0.335693,0.057195,-0.085622,8.281978,4.853491
1.591095,0.366211,-0.183105,0.125859,-0.075443,8.277187,4.865466
1.606821,0.312805,-0.343323,-0.080134,-0.094603,8.298144,4.863071
1.622450,0.503540,-0.190735,0.034307,-0.080233,8.291557,4.859479
1.638036,0.213623,-0.183105,-0.034358,-0.023351,8.281978,4.866664
1.653659,0.259399,-0.305176,0.019048,-0.082029,8.319699,4.861275
1.669288,0.312805,-0.091553,0.041936,-0.043110,8.247250,4.864868
1.684950,0.312805,-0.274658,0.095342,-0.056283,8.327483,4.871454
1.700707,0.244141,-0.343323,0.118230,-0.077239,8.267608,4.869059
1.716549,0.419617,-0.129700,0.011418,-0.057480,8.136480,4.848103
1.732416,0.320435,-0.221252,-0.049617,-0.053888,8.303533,4.863670
1.748391,0.434875,-0.282288,0.011418,-0.077239,8.283175,4.858281
1.764255,0.343323,-0.213623,0.057195,-0.065863,8.259225,4.839121
1.780165,0.328064,-0.328064,0.102971,-0.068258,8.298742,4.866065
1.796092,0.434875,-0.198364,0.102971,-0.068258,8.249645,4.848701
1.811937,0.350952,-0.251770,0.087712,-0.042512,8.280780,4.845109
1.827604,0.297546,-0.305176,-0.003840,-0.086221,8.290360,4.867861
1.843293,0.419617,-0.236511,-0.049617,-0.059875,8.276588,4.858880
1.858928,0.335693,-0.312805,-0.095393,-0.087418,8.298742,4.854689
1.874575,0.457764,-0.335693,-0.003840,-0.095801,8.281978,4.845707
1.890170,0.335693,-0.267029,0.102971,-0.069456,8.287965,4.847504
1.905818,0.320435,-0.396729,0.019048,-0.095202,8.288564,4.851096
1.921391,0.366211,-0.282288,0.102971,-0.038320,8.279583,4.854090
1.937067,0.289917,-0.358582,0.110601,-0.056882,8.256830,4.855288
1.952677,0.335693,-0.183105,0.041936,-0.071851,8.281379,4.863670
1.968448,0.419617,-0.251770,-0.041987,-0.043709,8.267009,4.857084
1.984204,0.373840,-0.228882,-0.019099,-0.047900,8.152646,4.881034
1.999960,0.236511,-0.274658,0.041936,-0.059875,8.280181,4.858880
2.015881,0.274658,-0.282288,0.049565,-0.044308,8.269403,4.863071
2.031868,0.335693,-0.350952,0.049565,-0.051493,8.296348,4.861275
2.047882,0.274658,-0.396729,0.011418,-0.086221,8.260423,4.851096
2.063751,0.480652,-0.381470,-0.080134,-0.065264,8.267608,4.849300
2.079521,0.366211,-0.434875,-0.019099,-0.070653,8.280181,5.004976
2.095164,0.389099,-0.289917,-0.003840,-0.064666,8.296348,4.845109
2.110881,0.381470,-0.198364,0.095342,-0.065863,8.281379,4.863670
2.126501,0.213623,-0.343323,0.087712,-0.062271,8.305927,4.713981
2.142166,0.312805,-0.152588,0.019048,-0.057480,8.262817,4.850497
2.157924,0.480652,-0.137329,0.034307,-0.050894,8.301737,4.861275
2.173555,0.267029,-0.305176,0.026677,-0.084424,8.286768,4.878639
2.189104,0.358582,-0.282288,-0.064875,-0.037722,8.268207,4.844510
2.204662,0.282288,-0.366211,-0.011470,-0.068857,8.326285,4.846306
2.220234,0.289917,-0.244141,0.026677,-0.060474,8.301737,4.851695
2.235881,0.297546,-0.320435,-0.003840,-0.040715,8.277187,4.874448
2.251613,0.343323,-0.167847,0.057195,-0.091011,8.295150,4.885824
2.267406,0.381470,-0.335693,0.087712,-0.029339,8.284372,4.848701
2.283242,0.335693,-0.343323,0.034307,-0.081431,8.141270,4.886423
2.299059,0.343323,-0.358582,-0.011470,-0.055684,8.137079,4.873849
2.314893,0.282288,-0.228882,-0.125911,-0.059875,8.126900,4.860077
2.330760,0.396729,-0.328064,0.080083,-0.085023,8.292755,4.848701
2.346596,0.228882,-0.213623,0.087712,-0.023351,8.288564,4.870256
2.362691,0.480652,-0.381470,0.019048,-0.086221,8.301138,5.000785
2.378462,0.389099,-0.244141,-0.041987,-0.029339,8.286169,5.006174
2.394159,0.480652,-0.328064,-0.026729,-0.070653,8.280780,4.991804
2.409864,0.373840,-0.030518,-0.064875,-0.052092,8.284971,4.863071
2.425495,0.129700,-0.183105,-0.003840,-0.045505,8.298742,4.847504
2.441071,0.389099,-0.183105,0.110601,-0.095202,8.305927,4.709191
2.456631,0.358582,-0.091553,0.133489,-0.049697,8.274793,4.850497
2.472173,0.335693,-0.267029,-0.034358,-0.082029,8.296348,4.876244
2.487793,0.587463,-0.267029,0.019048,-0.070054,8.259824,4.837924
2.503378,0.381470,-0.205994,-0.057246,-0.061073,8.280780,4.724160
2.519127,0.465393,-0.259399,0.049565,-0.089214,8.308323,4.997791
2.534941,0.534058,-0.289917,-0.011470,-0.042512,8.244855,4.823554
2.550728,0.160217,-0.244141,0.064824,-0.067659,8.317903,4.843312
2.566450,0.350952,-0.335693,0.057195,-0.068857,8.278385,4.852293
2.582342,0.236511,-0.129700,0.034307,-0.028141,8.141270,4.850497
2.598358,0.175476,-0.244141,-0.103022,-0.062869,8.278984,4.875645
2.614435,0.396729,-0.320435,0.057195,-0.065863,8.292755,4.843312
2.630602,0.396729,-0.244141,-0.087764,-0.019160,8.264015,4.847504
2.646327,0.289917,-0.381470,-0.087764,-0.099393,8.271200,4.709790
2.662050,0.213623,-0.221252,-0.072505,-0.097597,8.277187,4.843312
2.677763,0.366211,-0.335693,0.041936,-0.051493,8.288564,4.860676
2.693396,0.289917,-0.343323,0.110601,-0.080233,8.287965,4.853491
2.709033,0.320435,-0.259399,-0.064875,-0.041913,8.274194,4.847504
2.724622,0.396729,-0.404358,0.019048,-0.085023,8.286768,4.863670
2.740172,0.328064,-0.213623,0.026677,-0.056882,8.277786,4.992403
2.755742,0.320435,-0.366211,0.019048,-0.076042,8.280780,4.988810
2.771328,0.358582,-0.289917,0.003789,-0.053888,8.297545,4.869059
2.786933,0.450134,-0.350952,0.026677,-0.050295,8.293953,4.832535
2.802716,0.434875,-0.114441,0.080083,-0.045505,8.304730,4.834331
2.818523,0.221252,-0.320435,0.041936,-0.074844,8.277786,4.864269
2.834304,0.396729,-0.221252,0.026677,-0.050894,8.294552,4.870256
2.849973,0.541687,-0.160217,0.019048,-0.048499,8.296348,4.848103
2.865884,0.389099,-0.297546,0.072454,-0.061073,8.128696,4.834331
2.881721,0.480652,-0.473022,-0.110652,-0.052690,8.298144,4.837325
2.897588,0.205994,-0.358582,-0.026729,-0.059875,8.305329,4.848103
2.913476,0.221252,-0.213623,0.041936,-0.059277,8.268805,4.825949
2.929471,0.358582,-0.152588,-0.011470,-0.065264,8.294552,5.004377
2.945273,0.404358,-0.259399,0.057195,-0.099992,8.280181,4.707395
2.960941,0.251770,-0.358582,0.064824,-0.064666,8.269403,4.850497
2.976742,0.297546,-0.312805,-0.087764,-0.056882,8.284971,4.722364
2.992500,0.175476,-0.282288,0.041936,-0.078437,8.297545,4.849899
3.008170,0.404358,-0.167847,0.080083,-0.038320,8.260423,4.857683
3.023783,0.473022,-0.259399,0.011418,-0.077239,8.302335,4.851695
3.039376,0.228882,-0.259399,0.118230,-0.062271,8.259225,4.860676
3.055023,0.381470,-0.366211,-0.080134,-0.055085,8.289163,4.846905
3.070632,0.297546,-0.305176,0.019048,-0.098196,8.299940,4.864269
3.086468,0.442505,-0.122070,0.011418,-0.051493,8.280181,4.851695
3.102265,0.495911,-0.267029,-0.034358,-0.082029,8.277187,4.842115
3.118158,0.358582,-0.175476,0.003789,-0.073048,8.296348,4.871454
3.134018,0.381470,-0.129700,0.095342,-0.037123,8.262218,4.852293
3.149882,0.267029,-0.213623,0.064824,-0.086221,8.293354,4.837325
3.165815,0.396729,-0.297546,0.072454,-0.052690,8.284372,4.863071
3.181698,0.411987,-0.289917,0.049565,-0.057480,8.292156,5.010365
3.197619,0.320435,-0.221252,-0.034358,-0.059277,8.267009,4.881034
3.213569,0.129700,-0.259399,0.034307,-0.050295,8.271200,4.854090
3.229291,0.358582,-0.282288,0.034307,-0.078437,8.286768,4.851096
3.245014,0.312805,-0.259399,0.072454,-0.044308,8.416099,4.843312
3.260631,0.259399,-0.152588,0.110601,-0.064666,8.134085,4.858880
3.276222,0.221252,-0.190735,-0.049617,-0.074844,8.141270,4.854689
3.291918,0.465393,-0.282288,-0.064875,-0.086221,8.296947,4.859479
3.307773,0.350952,-0.228882,-0.003840,-0.045505,8.304132,4.828942
3.323297,0.366211,-0.320435,-0.026729,-0.035327,8.290360,4.859479
3.338869,0.373840,-0.267029,0.087712,-0.041314,8.309521,4.873849
3.354402,0.320435,-0.259399,-0.057246,-0.046104,8.295749,4.873250
3.370158,0.267029,-0.282288,-0.011470,-0.067659,8.301138,4.849300
3.385984,0.434875,-0.289917,0.064824,-0.053888,8.273595,4.831337
3.401722,0.305176,-0.305176,0.041936,-0.079036,8.280181,4.869658
3.417390,0.358582,-0.389099,0.057195,-0.058079,8.281978,4.870855
3.433119,0.389099,-0.366211,0.019048,-0.052092,8.252639,4.851695
3.448933,0.312805,-0.221252,-0.064875,-0.064666,8.279583,4.863071
3.464720,0.396729,-0.404358,-0.019099,-0.052092,8.264015,4.851096
3.480515,0.358582,-0.213623,0.118230,-0.071851,8.288564,4.848701
3.496529,0.305176,-0.167847,0.110601,-0.050295,8.307125,4.854689
3.512640,0.312805,-0.251770,0.087712,-0.076641,8.281978,4.863670
3.528897,0.350952,-0.297546,-0.072505,-0.034129,8.277187,4.866664
3.544579,0.259399,-0.320435,-0.011470,-0.046104,8.286768,4.863670
3.560515,0.297546,-0.259399,0.026677,-0.098795,8.292755,4.840918
3.576259,0.366211,-0.289917,0.026677,-0.064067,8.275392,4.856485
3.591836,0.358582,-0.427246,0.003789,-0.094005,8.293354,4.856485
3.607486,0.190735,-0.083923,0.072454,-0.040117,8.259824,4.873250
3.623434,0.183105,-0.381470,0.041936,-0.060474,8.289163,5.007371
3.639030,0.350952,-0.190735,-0.003840,-0.096998,8.252040,4.845707
3.654668,0.289917,-0.381470,0.026677,-0.064067,8.293953,4.715777
3.670283,0.373840,-0.350952,-0.110652,-0.092807,8.267608,4.710389
3.686107,0.366211,-0.289917,0.110601,-0.042512,8.299341,5.004377
3.701870,0.434875,-0.244141,0.034307,-0.027543,8.288564,4.861275
3.717579,0.350952,-0.213623,0.041936,-0.091610,8.307724,4.867262
3.733337,0.228882,-0.404358,0.003789,-0.046703,8.270002,4.862473
3.749192,0.465393,-0.373840,-0.019099,-0.084424,8.266410,4.852293
3.765015,0.427246,-0.305176,-0.034358,-0.077239,8.123906,4.864269
3.780824,0.373840,-0.305176,-0.080134,-0.053289,8.138875,4.857683
3.796736,0.534058,-0.228882,0.057195,-0.113763,8.314310,4.866065
3.812467,0.259399,-0.198364,0.125859,-0.068857,8.292755,4.834331
3.828305,0.373840,-0.251770,-0.026729,-0.059277,8.279583,4.857683
3.844245,0.495911,-0.228882,-0.057246,-0.074844,8.256830,4.836726
3.860567,0.205994,-0.267029,0.057195,-0.054487,8.290360,4.858880
3.877394,0.373840,-0.328064,-0.026729,-0.076042,8.268805,4.831337
3.893226,0.328064,-0.228882,0.141118,-0.076641,8.275990,4.879837
3.908966,0.221252,-0.236511,0.194524,-0.044308,8.290958,4.865466
3.924639,0.251770,-0.190735,0.011418,-0.074844,8.306526,5.007970
3.940596,0.373840,-0.267029,0.019048,-0.050894,8.286768,4.866065
3.956396,0.328064,-0.305176,0.087712,-0.085023,8.299341,4.858281
3.972295,0.465393,-0.183105,0.102971,-0.065863,8.286169,4.845109
3.987889,0.358582,-0.343323,0.003789,-0.046703,8.289163,4.863670
4.003539,0.389099,-0.343323,0.034307,-0.059875,8.286768,4.853491
4.019333,0.297546,-0.152588,0.003789,-0.063468,8.295749,4.866065
4.035060,0.366211,-0.251770,0.125859,-0.061672,8.303533,4.866664
4.050803,0.488281,-0.244141,0.026677,-0.066462,8.262817,4.844510
4.066657,0.343323,-0.312805,0.011418,-0.086819,8.304730,4.853491
4.082510,0.312805,-0.305176,0.064824,-0.079036,8.285570,4.847504
4.098323,0.282288,-0.099182,0.019048,-0.038320,8.290958,4.837924
4.114140,0.297546,-0.160217,-0.026729,-0.073048,8.316706,4.867861
4.130334,0.389099,-0.144958,0.034307,-0.069456,8.284971,4.709790
4.146045,0.473022,-0.167847,-0.057246,-0.064666,8.274194,4.845707
4.161774,0.228882,-0.198364,-0.064875,-0.054487,8.304132,4.870855
4.177423,0.305176,-0.305176,0.095342,-0.032932,8.275392,4.837325
4.193090,0.457764,-0.129700,0.102971,-0.079634,8.300539,4.843312
4.208665,0.190735,-0.274658,0.026677,-0.066462,8.277187,4.872053
4.224261,0.312805,-0.175476,-0.003840,-0.096400,8.270601,4.840918
4.239835,0.434875,-0.297546,-0.041987,-0.083227,8.312514,4.871454
4.255470,0.450134,-0.267029,-0.003840,-0.037722,8.282577,4.864868
4.271123,0.427246,-0.335693,-0.057246,-0.058678,8.264015,4.833732
4.286867,0.289917,-0.320435,0.041936,-0.078437,8.290958,4.863670
4.302655,0.274658,-0.251770,0.064824,-0.061073,8.296348,4.831337
4.318507,0.213623,-0.259399,-0.011470,-0.070054,8.145461,4.854689
4.334354,0.381470,-0.205994,-0.011470,-0.058678,8.305329,4.826547
4.350216,0.465393,-0.282288,0.080083,-0.030536,8.254435,4.873849
4.366128,0.297546,-0.175476,0.064824,-0.059875,8.287965,4.851096
4.381954,0.411987,-0.289917,0.049565,-0.054487,8.289163,4.855886
4.398114,0.205994,-0.335693,0.003789,-0.099393,8.267009,5.002581
4.413929,0.411987,-0.335693,0.118230,-0.072449,8.299940,4.862473
4.429614,0.297546,-0.259399,-0.049617,-0.015568,8.289163,4.877441
4.445337,0.381470,-0.305176,0.019048,-0.025746,8.303533,4.856485
4.461095,0.267029,-0.205994,-0.049617,-0.070653,8.424481,4.858880
4.476936,0.244141,-0.282288,-0.041987,-0.078437,8.411308,4.870256
4.492522,0.350952,-0.366211,0.034307,-0.073048,8.144264,4.849300
4.508485,0.152588,-0.228882,-0.019099,-0.050295,8.272996,4.878040
4.524762,0.320435,-0.236511,0.003789,-0.104782,8.292755,4.844510
4.541059,0.175476,-0.144958,0.049565,-0.075443,8.267009,4.854689
4.560230,0.282288,-0.282288,0.034307,-0.050894,8.264614,4.840918
4.575793,0.312805,-0.305176,0.102971,-0.069456,8.307125,4.852892
4.591341,0.396729,-0.350952,0.080083,-0.055085,8.290360,4.836726
4.606868,0.389099,-0.389099,0.019048,-0.052690,8.280181,4.852892
4.622414,0.251770,-0.160217,0.049565,-0.079634,8.283175,4.855886
4.638163,0.320435,-0.320435,0.064824,-0.024549,8.264015,4.846306
4.653857,0.228882,-0.305176,-0.064875,-0.101788,8.260423,4.867262
4.669688,0.221252,-0.282288,-0.003840,-0.087418,8.316706,4.878040
4.685517,0.335693,-0.259399,-0.080134,-0.050295,8.286169,4.711586
4.701387,0.289917,-0.282288,-0.041987,-0.068258,8.281379,4.709790
4.717322,0.358582,-0.144958,0.019048,-0.007185,8.270601,4.862473
4.733298,0.236511,-0.328064,0.125859,-0.091011,8.279583,4.869658
4.749248,0.289917,-0.320435,0.095342,-0.041913,8.133487,4.848103
4.765110,0.259399,-0.358582,-0.011470,-0.055684,8.293953,4.854090
4.781087,0.297546,-0.152588,-0.011470,-0.082628,8.267009,4.851695
4.797008,0.366211,-0.198364,-0.034358,-0.047302,8.296947,4.854090
4.812795,0.381470,-0.282288,0.019048,-0.090412,8.291557,4.839121
4.828477,0.381470,-0.167847,-0.026729,-0.052690,8.300539,5.006174
4.844303,0.312805,-0.305176,0.011418,-0.031135,8.295150,5.001384
4.860009,0.427246,-0.152588,0.095342,-0.058079,8.274793,5.001384
4.875640,0.442505,-0.259399,-0.019099,-0.037722,8.286768,4.840319
4.891251,0.411987,-0.236511,0.019048,-0.073647,8.286169,4.994199
4.906832,0.198364,-0.236511,0.026677,-0.048499,8.275392,4.847504
4.922493,0.389099,-0.389099,-0.064875,-0.052092,8.280181,4.833732
4.938111,0.205994,-0.480652,-0.087764,-0.105381,8.272397,4.873849
4.953915,0.320435,-0.114441,-0.034358,-0.070653,8.281379,4.875645
4.969680,0.465393,-0.236511,-0.049617,-0.087418,8.293354,4.824751
4.985498,0.312805,-0.213623,0.049565,-0.062869,8.302934,4.847504
5.001287,0.289917,-0.160217,-0.019099,-0.044308,8.310119,4.865466
5.017066,0.282288,-0.114441,-0.064875,-0.105980,8.416099,4.860676
5.032934,0.274658,-0.076294,0.034307,-0.054487,8.278385,4.855288
5.048743,0.366211,-0.274658,0.019048,-0.056882,8.263416,4.867861
5.064720,0.442505,-0.129700,0.057195,-0.055085,8.268805,4.849899
5.080482,0.213623,-0.228882,-0.019099,-0.063468,8.314310,4.861874
5.096167,0.381470,-0.488281,0.049565,-0.099393,8.263416,4.843911
5.111860,0.495911,-0.167847,-0.041987,-0.054487,8.318501,4.858281
5.127447,0.373840,-0.389099,0.026677,-0.057480,8.282577,4.841516
5.143695,0.625610,-0.335693,0.034307,-0.087418,8.287965,4.841516
5.159317,0.373840,-0.167847,-0.003840,-0.082628,8.246052,4.830739
5.174882,0.297546,-0.198364,0.171636,-0.038320,8.320896,4.870256
5.190432,0.213623,-0.190735,0.034307,-0.052092,8.258027,4.857084
5.206038,0.274658,-0.328064,-0.041987,-0.104782,8.291557,4.857683
5.221641,0.221252,-0.282288,0.041936,-0.062271,8.283773,4.850497
5.237503,0.419617,-0.419617,0.019048,-0.060474,8.278984,4.848103
5.254095,0.228882,-0.282288,0.072454,-0.084424,8.293354,4.820560
5.270446,0.183105,-0.213623,0.102971,-0.053289,8.294552,4.709790
5.286304,0.175476,-0.267029,0.003789,-0.091610,8.267009,4.846306
5.302240,0.343323,-0.198364,0.019048,-0.066462,8.316706,4.860077
5.317912,0.228882,-0.289917,0.026677,-0.074844,8.250243,4.848701
5.333496,0.434875,-0.205994,0.034307,-0.071851,8.291557,4.870256
5.349505,0.343323,-0.312805,-0.103022,-0.043110,8.274194,4.854689
5.365216,0.366211,-0.267029,-0.164058,-0.077239,8.424481,4.831337
5.380825,0.419617,-0.259399,0.003789,-0.079036,8.305329,4.842714
5.396491,0.366211,-0.282288,0.041936,-0.065264,8.292755,4.866664
5.412090,0.366211,-0.259399,0.148748,-0.056882,8.272397,4.854689
5.427728,0.335693,-0.350952,0.141118,-0.062869,8.319699,4.831936
5.443409,0.297546,-0.282288,-0.003840,-0.048499,8.274793,4.854689
5.459091,0.343323,-0.358582,-0.087764,-0.085622,8.297545,4.855288
5.474693,0.350952,-0.328064,-0.125911,-0.054487,8.272397,4.846306
5.491172,0.320435,-0.244141,0.026677,-0.092807,8.298742,4.825350
5.506764,0.198364,-0.205994,0.003789,-0.058079,8.271799,4.852892
5.522441,0.228882,-0.205994,0.034307,-0.058079,8.290958,4.836127
5.538666,0.305176,-0.106812,0.072454,-0.038919,8.289762,4.860077
5.554345,0.572205,-0.167847,-0.057246,-0.029339,8.318501,4.872652
5.570012,0.465393,-0.167847,-0.072505,-0.105980,8.277187,4.876842
5.585663,0.480652,-0.251770,0.064824,-0.043110,8.281978,4.870256
5.601584,0.534058,-0.312805,-0.103022,-0.053289,8.286768,4.862473
5.617475,0.404358,-0.282288,0.118230,-0.094005,8.275392,4.847504
5.633578,0.282288,-0.267029,0.087712,-0.043110,8.272397,4.855288
5.650075,0.297546,-0.404358,0.034307,-0.078437,8.276588,4.858880
5.666017,0.480652,-0.190735,0.034307,-0.066462,8.265212,4.859479
5.681899,0.434875,-0.152588,-0.034358,-0.058079,8.136480,4.848701
5.697884,0.396729,-0.434875,-0.034358,-0.086221,8.310119,4.822955
5.713533,0.465393,-0.282288,0.057195,-0.042512,8.268805,4.840918
5.729202,0.160217,-0.228882,-0.003840,-0.080832,8.290360,4.858281
5.745646,0.328064,0.038147,0.225042,-0.029339,15.672409,8.248431
5.761601,7.255554,4.493713,2.559636,2.281855,9.019644,10.283001
5.777679,69.480896,3.189087,-8.594539,1.786685,14.119838,11.430814
5.793496,130.455017,-7.774353,-4.764583,-0.550855,9.783655,5.264836
5.809197,119.560242,0.373840,-6.389644,-0.239502,9.985435,6.199492
5.825104,140.548706,3.097534,-8.098628,-0.426313,7.807764,5.755216
5.840976,144.332886,-4.531860,-7.816340,0.053289,9.769284,5.903109
5.857223,171.806335,-5.973816,-11.127498,-0.330513,8.655601,4.063135
5.872813,180.908203,-7.118225,-10.067012,-0.077239,7.068301,4.697815
5.888463,194.625854,-5.088806,-6.946589,0.293390,5.965994,4.502022
5.904506,216.743469,-4.104614,-1.674678,-0.914299,4.938530,1.681887
5.920312,202.819824,-3.150940,-2.925899,-1.213077,6.500083,1.266949
5.936189,205.795288,-7.591248,0.545476,0.413740,0.409548,-0.639486
5.952016,144.393921,0.381470,5.458806,0.115560,-2.177073,-0.298795
5.967931,70.198059,-0.045776,12.767766,-0.716111,3.954177,-0.128149
5.983797,76.667786,-0.984192,11.676763,-0.159269,3.721262,1.330418
6.000079,92.025757,-1.602173,13.446782,1.189726,11.349998,1.786669
6.016189,185.615540,-10.055542,15.735600,-4.803212,19.617605,-19.817604
6.031863,152.343750,5.897522,3.505681,-0.829275,17.914146,-8.984333
6.047719,132.316589,-4.196167,-0.804927,3.557801,0.780776,3.164404
6.063524,73.692322,-5.744934,8.251164,0.080832,-12.672049,3.473361
6.079429,61.874390,-12.596130,-9.418513,-1.877097,19.617605,-6.715651
6.095092,80.909729,69.679260,-7.083919,5.866002,3.547623,10.098584
6.111111,75.492859,17.044067,3.009770,6.313870,3.923641,-6.886895
6.127161,63.812256,-14.717102,-12.599971,1.588497,9.348360,-13.418113
6.143100,100.181580,13.938904,2.704595,-0.615520,4.594845,3.137460
6.158833,85.189819,25.016785,8.701299,0.496967,2.503993,-5.154098
6.174432,86.311340,5.012512,-6.450679,-1.006507,11.899654,-8.697529
6.190051,94.383240,12.252808,-10.654475,-2.693798,6.410869,-2.027400
6.205660,79.978943,18.119812,-5.504634,1.542991,5.906118,-5.515746
6.221469,80.451965,3.997803,-2.849605,1.398691,8.000563,-9.111868
6.237190,75.637817,4.753113,-6.519343,0.570613,5.805527,-4.654138
6.252908,68.229675,5.317688,2.483342,-0.195793,8.735834,-8.293968
6.268704,65.788269,-2.441406,-4.871394,-0.999921,5.903124,-5.212177
6.284533,61.203003,-0.946045,2.246831,0.121547,7.801178,-7.027003
6.300356,65.673828,-5.218506,2.559636,-0.596360,6.417455,-5.956429
6.316162,63.140869,-4.508972,1.880620,-0.237107,6.836583,-7.181482
6.331995,61.790466,-6.858826,2.925847,0.716710,6.091134,-6.727626
6.347712,55.366516,-6.309509,2.254460,0.318538,6.430029,-7.190463
6.363389,52.169800,-5.798340,0.858281,0.459245,6.400690,-6.759958
6.379047,50.941467,-5.012512,1.010869,-0.056283,6.616241,-6.834204
6.394809,52.955627,-5.004883,-0.408198,-0.445474,6.667734,-6.701281
6.410499,55.351257,-2.838135,-0.225093,-0.358055,6.489904,-6.898870
6.426087,57.708740,4.081726,2.933476,-0.656834,8.701106,-10.747067
6.441663,43.670654,-3.639221,-4.573848,1.188528,3.614084,-7.597018
6.457246,43.540955,-0.404358,2.819036,-0.541873,5.332511,-7.577857
6.472911,36.529541,1.869202,-3.314998,-1.150807,6.485114,-8.479583
6.488641,35.873413,-1.861572,0.644658,0.017963,5.722899,-7.987406
6.505052,36.140442,0.343323,0.621770,0.383802,5.216951,-8.090392
6.520900,33.683777,-2.021790,1.399968,-0.199385,5.093009,-8.802311
6.536718,28.137207,-0.495911,-0.644709,-0.094603,4.754713,-8.179008
6.552543,23.208618,0.999451,-0.545527,0.023351,4.840334,-8.602327
6.568502,19.660950,-0.114441,-0.041987,0.029938,4.891229,-8.406534
6.584497,15.930176,-0.053406,-0.881221,0.095801,4.946913,-8.598136
6.600448,13.183594,0.267029,-0.316646,-0.004790,4.794829,-8.494552
6.616277,9.407043,-0.930786,0.194524,-0.026345,4.738546,-8.484372
6.632206,5.218506,-0.854492,0.095342,-0.147294,4.809199,-8.607118
6.647883,1.701355,-1.495361,0.926946,-0.142504,4.773274,-8.558619
6.663771,-1.861572,-1.266479,0.499700,-0.049697,4.780459,-8.572989
6.679708,-5.874634,-1.075745,0.461553,0.053289,4.768484,-8.561013
6.695386,-9.704590,-0.503540,-0.064875,-0.049697,4.730164,-8.568797
6.711839,-11.268616,-2.990723,-3.482844,0.396974,3.392545,-11.333847
6.727462,-81.047058,5.897522,4.352544,-1.385519,-3.303331,-6.931202
6.743041,-168.785095,-4.631042,1.598333,-0.549058,2.529141,-10.659050
6.758888,-183.258057,1.289368,2.384160,-0.330513,7.095844,-7.504211
6.774618,-175.445557,-4.615784,0.102971,-0.372426,8.965157,-7.037781
6.790495,-157.691956,-14.884949,-0.713374,-2.360292,9.798624,-6.539018
6.806085,-144.973755,-5.546570,2.445195,1.023871,4.755910,-5.416951
6.822015,-106.285095,-4.997253,4.779790,-0.884960,10.104588,-7.747904
6.837886,-103.881836,-1.388550,3.124211,0.848436,7.947872,-6.069594
6.853675,-46.806335,-4.096985,2.895329,-0.131726,8.801098,-5.561251
6.869668,-14.450073,-8.865356,6.008122,-0.713716,12.218192,-6.343824
6.885686,27.046204,-6.393433,5.229924,-0.201780,10.793755,-1.799873
6.901582,83.427429,-10.871887,-0.057246,0.183818,11.212883,-2.487244
6.917597,90.850830,-8.789062,-0.179316,-0.008383,10.802136,-1.674733
6.934165,81.245422,0.244141,5.657170,-0.173639,6.419850,-1.531631
6.950601,57.662964,-2.883911,1.216863,0.401765,6.306087,-4.151782
6.966220,11.734009,-2.471924,-3.131892,0.092208,5.472021,-3.993711
6.982164,-14.160156,-2.105713,2.307866,-0.462239,6.259982,-4.533189
6.997892,-42.060852,2.471924,3.353093,-0.216749,6.407276,-4.848134
7.013534,-50.918579,-1.625061,0.133489,0.198787,7.632927,-5.110988
7.029224,-51.765442,-1.487732,-1.644160,-0.134121,8.674761,-5.766624
7.045229,-41.038513,1.670837,2.094243,-0.359852,8.356223,-5.423538
7.060833,-22.285461,2.716064,-0.019099,-0.151485,8.363408,-6.085761
7.076387,-11.421204,1.411438,-1.194026,0.038919,8.031698,-6.466568
7.091929,4.631042,-0.053406,-1.606013,-0.299976,8.011939,-7.305424
7.107512,18.531799,-0.877380,-0.751521,-0.335303,8.165819,-6.497704
7.123139,29.808044,-0.282288,0.133489,-0.322729,7.821535,-6.444415
7.138923,38.154602,0.267029,-0.316646,-0.150886,7.752678,-6.068397
7.154638,43.701172,-0.923157,-0.309016,-0.102387,7.957452,-5.478623
7.171657,44.593811,-1.502991,-0.225093,-0.033530,7.908354,-5.062489
7.187652,41.557312,-1.724243,-1.056697,-0.007185,7.373666,-4.584682
7.203334,36.155701,-1.052856,-1.499202,0.004191,7.865244,-4.270935
7.218954,31.318665,-0.305176,-1.812007,-0.193398,7.613168,-4.305662
7.234953,26.359558,3.578186,-1.651790,0.037722,7.847281,-4.600848
7.250648,26.809692,2.220154,-4.070308,-0.020358,8.038284,-4.663718
7.266255,32.356262,2.502441,-4.940059,0.037123,8.020921,-4.796641
7.281897,42.594910,4.348755,-2.391841,-0.078437,7.883806,-5.568436
7.297478,55.068970,1.930237,-1.621272,-0.414338,7.837103,-5.701360
7.313059,65.399170,0.465393,1.270269,-2.369872,9.875863,-10.057900
7.328652,62.026978,12.550354,3.375981,2.576442,8.877140,-11.801475
7.344322,61.508179,4.585266,1.934026,0.659828,8.079598,-7.370090
7.359866,70.487976,-4.005432,-6.359126,-1.134042,6.734196,-7.355121
7.375466,72.799683,1.136780,2.170537,-0.652044,6.142626,-6.878512
7.391050,87.623596,-2.769470,4.116033,0.082029,5.521718,-6.409088
7.406694,86.608887,-2.433777,-2.216365,0.011975,5.922285,-7.009040
7.422482,93.444824,-3.974915,-1.079585,-0.734073,6.048622,-7.465292
7.438349,88.455200,0.335693,1.094792,0.029938,6.096522,-6.497704
7.454167,83.992004,0.732422,-2.468135,-0.320334,5.430108,-6.991078
7.469986,76.316833,2.555847,-4.009273,-0.070653,4.986431,-7.503612
7.485925,71.266174,2.502441,-1.758601,0.264650,4.802014,-7.853285
7.501804,69.938660,1.365662,-2.872493,-0.571212,5.046306,-9.350172
7.517491,75.157166,1.670837,-3.536250,-0.038919,5.150489,-8.750219
7.533476,82.733154,2.037048,-0.759150,0.388592,4.733157,-9.305265
7.549441,98.312378,0.740051,-0.278499,-0.381407,4.586462,-9.304667
7.565241,101.333618,1.762390,-2.758052,-0.077838,3.660189,-8.428089
7.580982,106.941223,2.449036,-2.193477,-0.080233,3.424279,-9.822590
7.596692,109.489441,2.044678,-1.438166,0.326920,3.426075,-9.101688
7.612438,103.050232,2.578735,-2.986934,0.310155,2.926714,-8.161644
7.628039,104.934692,1.182556,-2.750422,0.332309,2.831512,-8.749022
7.644194,100.975037,0.259399,-1.796748,-0.052690,2.083667,-8.652622
7.660591,98.831177,0.991821,-2.903010,0.295785,1.615441,-9.165755
7.678967,97.671509,0.297546,-1.819636,-0.063468,1.976490,-9.180126
7.695598,101.882935,-1.213074,-2.025630,0.241897,0.939446,-10.462060
7.711616,106.124878,0.076294,-1.178767,0.000599,1.045426,-10.663840
7.727475,108.505249,-0.015259,-1.461055,0.183818,-0.304766,-9.569915
7.743102,114.196777,-0.152588,-2.018001,-0.451461,0.081431,-10.012994
7.758666,118.515015,0.640869,-0.553157,-0.113165,0.073048,-9.107078
7.774521,120.895386,-0.831604,-3.452327,0.306563,0.129331,-9.854323
7.790261,118.682861,-0.198364,0.324224,0.180225,-1.139431,-9.974074
7.805854,116.394043,0.328064,-0.591304,0.027543,-1.288520,-8.940624
7.821511,113.594055,-0.633240,-2.483394,-0.365839,-1.626218,-9.035227
7.837296,110.092163,-0.450134,-3.788020,0.189805,-2.515968,-9.372925
7.853150,109.970093,-0.785828,-1.468684,-0.624501,-3.176993,-9.370530
7.869070,116.340637,-0.686646,-0.431086,0.127535,-3.178191,-10.260280
7.884909,119.522095,-1.075745,-2.124812,0.261656,-3.465593,-10.193219
7.900792,121.978760,-0.152588,-1.247432,-0.258662,-3.605702,-9.278920
7.916771,121.612549,-1.502991,-0.209834,-0.324525,-3.872148,-9.051394
7.932614,122.314453,-3.005981,-0.194575,-0.199385,-4.795428,-9.188508
7.948578,120.414734,-2.174377,0.629399,-0.199385,-4.543352,-7.899389
7.964308,114.662170,-1.060486,2.063725,-0.694556,-4.952900,-7.189266
7.980087,112.899780,-0.465393,2.292607,0.119751,-5.528903,-8.210143
7.995872,111.854553,-1.052856,0.537847,-0.033530,-5.623506,-7.024009
8.011527,111.434937,0.076294,1.018499,-0.219743,-6.003117,-8.025726
8.027108,115.745544,-0.015259,0.949834,0.031734,-6.573131,-9.006487
8.042696,116.439819,-0.968933,1.079534,-0.193997,-6.539601,-7.000059
8.058343,115.005493,-0.114441,0.812505,0.014370,-6.732400,-7.098854
8.073992,113.319397,-0.602722,0.164006,0.805924,-6.801856,-6.955153
8.089961,106.719971,-0.061035,-3.246333,0.169448,-7.038962,-5.947448
8.105810,104.469299,-2.670288,-2.994563,-0.340093,-8.164022,-6.466568
8.121668,101.593018,-1.113892,-0.995662,-0.115560,-8.213120,-5.922899
8.137560,99.716187,0.091553,-0.621821,0.498763,-8.958570,-5.519339
8.153406,99.800110,-1.121521,-2.323176,-0.193398,-8.175399,-5.769019
8.169260,101.623535,-2.220154,-1.956965,0.262255,-9.263935,-4.994230
8.185425,97.404480,-1.495361,-1.438166,-0.246088,-8.652607,-5.157092
8.201548,111.122131,7.194519,-17.124201,2.624941,-5.098997,-0.920901
8.218110,89.675903,-7.461548,-14.652278,1.143023,-12.279265,-0.684991
8.234309,83.724976,-14.511108,-29.018427,-0.285007,-11.121872,-2.548317
8.250947,84.457397,-28.305054,-25.051142,-3.256029,-12.454102,-0.511951
8.266725,51.712036,-22.232056,-27.111078,-2.029779,-10.902728,-1.004727
8.282489,31.845093,-12.130737,-10.532405,-0.199984,-10.887759,-2.135176
8.298117,5.180359,-3.845215,-2.697017,1.662144,-11.136242,-0.955629
8.314231,-18.981934,-2.136230,3.101323,0.609532,-7.670050,-1.773528
8.329963,-26.229858,8.079529,12.073491,2.224374,-6.415060,-5.182240
8.345714,-49.339294,11.947632,12.264226,2.792593,-7.666458,-2.770455
8.361415,-54.458618,-1.716614,4.924748,0.784369,-10.489587,-3.288378
8.377029,-47.912598,-4.257202,5.596135,-0.076641,-7.216793,-6.524049
8.392589,-43.891907,0.213623,12.050603,-0.022154,-10.525512,-5.619929
8.408193,-28.457642,9.880066,17.703985,0.430505,-8.917855,-4.965490
8.423845,-23.597717,5.111694,16.696905,-0.373024,-10.406360,-4.719402
8.439792,-20.713806,4.631042,15.628789,-0.601150,-8.424481,-4.718204
8.455585,-26.473999,5.378723,14.903996,-0.414338,-9.492660,-5.183437
8.471312,-27.526855,5.592346,13.660405,-0.150886,-8.477771,-4.672699
8.487116,-35.346985,8.255005,12.058232,-0.059875,-8.501122,-4.871486
8.503000,-38.932800,3.982544,9.830449,0.414937,-8.040081,-5.730100
8.518908,-40.710449,-0.549316,4.466985,-0.504152,-8.511301,-5.146913
8.534812,-36.773682,-3.616333,0.347112,-0.652044,-8.673563,-5.423538
8.550611,-35.057068,-3.677368,-1.613643,-1.026865,-8.372989,-5.175055
8.566288,-38.520813,-1.800537,-4.352595,-0.646057,-8.321495,-5.411562
8.581958,-38.864136,-2.700806,-8.876826,-0.498164,-7.998168,-5.924097
8.597654,-40.611267,-3.524780,-12.027766,-0.106578,-8.277786,-5.955232
8.613452,-41.084290,-5.683899,-14.759089,0.391586,-7.862250,-5.955831
8.629063,-41.061401,-6.782532,-14.392879,0.337099,-8.173004,-6.163000
8.644669,-39.352417,-5.218506,-10.921504,0.166454,-7.999964,-6.079174
8.660250,-38.604736,-3.913879,-7.343318,0.224533,-7.883207,-6.345021
8.675816,-38.261414,-2.441406,-3.398921,-0.194595,-7.558083,-6.325861
8.691423,-39.825439,-1.510620,-1.400020,-0.071851,-7.726333,-6.458186
8.707192,-41.862488,-0.396729,0.858281,-0.220941,-7.311995,-6.591110
8.723007,-42.915344,0.526428,2.918218,-0.001796,-7.390431,-6.821032
8.738909,-42.686462,1.159668,5.542729,-0.180824,-7.347321,-7.062929
8.754706,-41.969299,2.937317,8.747075,0.096400,-7.329957,-6.967128
8.770573,-40.290833,2.029419,10.395024,-0.265847,-7.298223,-7.070712
8.786613,-38.757324,2.349854,11.226628,0.341290,-6.854546,-7.191062
8.803029,-40.107727,1.480103,8.151982,0.082628,-7.179071,-7.197050
8.819446,-41.358948,0.137329,3.971074,-0.392783,-6.776708,-7.179686
8.835142,-40.626526,-1.434326,2.918218,-0.280816,-6.474936,-7.453317
8.851020,-40.771484,-0.183105,2.048467,-0.141306,-6.731203,-7.486248
8.867514,-40.084839,0.770569,-0.392939,-0.403561,-6.389912,-7.407811
8.883361,-40.016174,-1.060486,-3.078486,-0.360450,-6.318061,-7.661684
8.899246,-39.970398,-0.083923,-4.695918,-0.229323,-6.211483,-7.612586
8.915509,-39.573669,0.572205,-4.077937,-0.245490,-6.221662,-7.760478
8.931105,-40.344238,1.747131,-4.703547,-0.061073,-5.843249,-7.904179
8.946902,-42.579651,1.091003,-5.764033,0.067061,-5.848039,-7.889809
8.962551,-42.808533,0.709534,-6.305720,-0.053888,-5.801336,-8.194575
8.978081,-41.122437,-0.328064,-3.963496,-0.055085,-5.870791,-8.336480
8.993697,-38.391113,0.091553,-2.414729,0.205373,-5.520520,-8.422102
9.009290,-33.508301,-0.534058,-2.498652,0.316143,-5.713319,-8.311932
9.024976,-31.234741,-1.243591,-2.506282,0.008981,-5.474416,-8.419707
9.040791,-31.547546,-1.091003,-0.255610,-0.578397,-5.268444,-8.182600
9.056867,-32.913208,0.076294,2.422307,0.117955,-5.261259,-12.661286
9.073186,-42.297363,7.133484,0.659917,-0.593366,-6.588100,-10.624323
9.089049,-1.434326,7.690430,3.177617,-0.677791,-7.865244,-9.699845
9.104780,24.528503,-0.015259,-1.445796,-0.346679,-5.746850,-10.028562
9.120628,23.963928,-2.616882,-4.161860,0.140707,-5.722899,-9.990241
9.136211,33.149719,1.029968,2.002690,0.029339,-6.611452,-10.053709
9.152193,49.743652,7.743835,4.810308,0.504750,-5.849835,-9.279519
9.168045,57.624817,-1.693726,-0.713374,1.089135,-5.136718,-8.897513
9.183845,60.333252,-3.166199,-2.635982,-0.150886,-6.121670,-8.741838
9.199814,71.075439,-2.174377,2.490972,-0.179028,-5.709128,-7.254530
9.215541,76.362610,-0.289917,7.396672,-0.079036,-5.195396,-8.275407
9.231214,84.220886,-0.846863,6.107305,0.702339,-5.864205,-8.169428
9.246996,94.863892,-1.045227,4.520391,-0.379611,-5.554050,-7.971838
9.262589,100.936890,-1.960754,7.999394,0.210163,-5.646857,-7.870050
9.278173,107.376099,0.114441,7.152532,-0.196990,-5.553452,-7.971240
9.293780,117.088318,0.976562,9.181951,-0.550256,-6.367159,-7.674856
9.309946,120.986938,-0.183105,12.752507,0.002395,-6.912625,-7.027003
9.325786,128.448486,1.159668,10.868047,0.421523,-6.388116,-5.766026
9.341575,138.465881,-0.999451,12.515996,-0.961600,-4.636159,-5.658249
9.357225,123.519897,1.930237,15.285466,-0.202978,-3.996689,-4.808018
9.372874,96.557617,2.861023,15.064214,0.342488,-3.277584,-3.445850
9.388778,75.912476,6.561279,15.346501,-0.150886,-3.796106,-3.930842
9.404612,52.146912,0.930786,18.749212,-0.216749,-3.960165,-5.330132
9.420257,37.956238,-0.183105,16.658758,-0.525707,-4.918173,-6.444415
9.435964,18.478394,4.875183,14.621709,-0.664618,-6.070177,-5.745069
9.452114,19.966125,8.216858,12.294744,-1.052611,-8.245454,-6.269578
9.468022,49.079895,4.371643,10.127995,-1.513054,-9.398057,-6.938387
9.483734,77.613831,-3.570557,7.091496,-0.949625,-8.958570,-6.396514
9.499561,93.849182,-3.623962,1.750920,-0.103585,-8.081394,-5.326540
9.515256,101.982117,-2.555847,-4.680659,-0.313748,-7.434141,-5.116376
9.530981,106.185913,-3.013611,-7.129695,-0.490979,-6.847960,-4.208664
9.546568,103.553772,-7.217407,-6.282832,-0.650847,-6.793473,-4.141005
9.562205,99.220276,-8.506775,-6.931331,-0.613125,-7.349716,-4.117054
9.577874,112.617493,-6.965637,-8.815791,-0.366438,-8.962163,-5.401982
9.593484,126.319885,-9.986877,-13.172175,0.211959,-8.617879,-2.762671
9.609116,141.036987,-12.321472,-12.767817,-0.619711,-9.040001,-2.745906
9.624845,154.571533,-12.565613,-11.081721,-0.016765,-7.620952,-2.372283
9.640641,161.254883,-12.298584,-10.173823,0.116158,-7.523355,-2.355518
9.656473,168.457031,-11.344910,-9.815242,0.017963,-8.337063,-1.495706
9.672304,177.276611,-13.862610,-11.798884,-0.504152,-9.756112,-1.638808
9.688152,194.839478,-18.463135,-9.243037,-0.206570,-8.028705,-0.174254
9.705346,204.490662,-15.975952,-10.112788,0.913700,-16.235838,-4.943935
9.721340,227.424622,-17.814636,-25.875116,-12.849279,-19.617605,-11.467369
9.737354,89.179993,-12.001038,22.006964,-3.023113,14.759308,12.995360
9.753387,174.468994,-38.040161,14.209722,2.609374,8.369994,-4.573306
9.769289,120.964050,-9.056091,-23.868586,1.407673,-19.617605,3.004536
9.785150,169.281006,-36.140442,17.070745,-5.033732,-6.343209,9.058547
9.800881,148.040771,-13.183594,4.894231,7.659273,-8.313711,4.797208
9.816498,109.268188,-5.165100,5.809758,-2.689008,-9.909992,12.040945
9.832148,120.338440,-3.227234,-1.148250,-2.053130,-8.380174,6.422828
9.847755,119.178772,-12.168884,9.708379,-0.791554,-8.476573,5.387580
9.863468,112.915039,-7.675171,4.878972,-0.997526,-8.501122,9.306431
9.879084,117.637634,-3.395081,1.934026,-0.411345,-6.664142,6.387501
9.894706,112.930298,0.923157,0.102971,-0.547262,-6.765930,6.256374
9.910326,109.085083,4.646301,-2.246882,0.157473,-7.004235,6.967695
9.925968,109.024048,7.225037,-2.727534,0.098196,-6.418054,6.121654
9.941877,100.502014,7.873535,-1.064326,0.060474,-6.299500,7.292220
9.957742,99.128723,6.698608,-1.400020,0.122146,-6.298902,7.129957
9.973514,93.940735,-0.251770,-13.141658,1.568738,-8.728649,16.106491
9.989328,88.447571,10.475159,3.108953,4.032614,-4.623585,2.935679
10.005548,67.604065,6.835938,-3.566768,-1.314866,-6.223458,8.304115
10.021593,66.535950,8.399963,-2.330806,-0.587977,-5.019362,9.061541
10.037531,51.025391,12.252808,-9.067561,4.094885,0.077239,8.314295
10.053342,-44.769287,-1.541138,-6.000545,0.796344,1.320255,6.644966
10.068936,-76.560974,16.891479,-1.369502,0.351469,-7.808362,8.560383
10.084566,-79.269409,5.424500,-7.900264,-1.409469,-5.487588,8.859760
10.100659,-75.744629,8.186340,-3.917720,-0.631686,-7.978409,9.658499
10.116402,-58.883667,6.355286,-5.657222,-0.223934,-6.553971,8.498112
10.132000,-58.700562,15.083313,-3.841426,0.265847,-6.242020,11.937360
10.147680,-31.005859,9.712219,-4.840877,-0.427511,-6.393505,10.271625
10.163354,-19.935608,20.156860,-5.527522,-0.046703,-6.168972,9.526175
10.178929,22.155762,5.905151,-10.913875,-0.213157,-10.259665,5.633669
10.194483,96.450806,22.712708,-0.644709,0.371228,-12.474460,2.598580
10.210148,138.656616,20.957947,-5.619075,0.863405,-11.194322,3.935600
10.225823,140.373230,2.235413,-8.548762,-0.365240,-7.528145,2.409374
10.241643,120.864868,7.713318,-3.986384,-0.510139,-5.915698,2.402189
10.257935,82.794189,11.375427,-0.652339,-0.311353,-4.343966,3.779325
10.273669,42.053223,1.144409,-1.346614,-0.328118,-4.457730,6.248590
10.289251,26.008606,-0.503540,0.850652,-0.565823,-4.505630,8.853174
10.304958,23.902893,2.044678,4.169438,0.461041,-6.344407,10.573996
10.320958,34.515381,-5.523682,5.695317,-0.347278,-4.049978,11.783481
10.336656,48.095703,-8.842468,7.213567,-1.160986,-4.465514,10.934445
10.352239,57.769775,-6.553650,11.768315,-0.303569,-4.489464,12.449296
10.367947,66.246033,-10.772705,10.662053,-0.076641,-4.849915,11.257174
10.383556,79.399109,-10.887146,7.335637,-1.080154,-4.660109,10.174027
10.399107,86.112976,-10.742188,9.441350,-0.873583,-4.124823,8.974721
10.414688,86.990356,-7.499695,9.349797,-0.462239,-4.795428,8.416681
10.430204,84.075928,-7.629395,5.855535,-0.628094,-4.581672,7.492803
10.445775,70.762634,-4.837036,5.062078,-0.475411,-3.963159,7.591597
10.461414,58.517456,-1.152039,3.017400,-0.390388,-3.634442,7.626924
10.476989,48.698425,-1.319885,0.522588,-0.388592,-3.612288,8.384948
10.492637,41.755676,0.846863,0.896428,-0.300575,-3.026706,9.558507
10.508443,43.334961,2.464294,0.827764,-0.213755,-2.692002,10.579384
10.524197,52.528381,1.274109,-0.690486,-0.066462,-2.610571,11.594274
10.539974,61.210632,1.380920,0.049565,-0.226329,-2.372267,11.677501
10.555789,69.175720,0.160217,1.056646,-0.200583,-2.013613,11.048808
10.571584,74.401855,-1.113892,0.553105,-0.182620,-2.144740,9.961469
10.587511,72.891235,1.564026,0.446294,-0.305964,-2.057322,8.936400
10.603544,66.535950,2.929688,-0.118281,-0.171843,-2.357897,8.293338
10.619514,56.068420,1.693726,-2.018001,-0.377814,-2.250121,8.120896
10.635256,47.752380,1.609802,-2.246882,-0.432900,-1.865121,8.734620
10.650895,42.022705,2.212524,-0.865962,-0.577798,-1.690285,9.520186
10.666519,38.742065,0.694275,-1.476313,-0.555645,-0.793350,10.243483
10.682486,40.374756,0.549316,0.125859,-0.696352,-0.717308,10.783560
10.698442,46.768188,-1.205444,2.811406,-0.371228,-0.394579,11.139220
10.714283,53.665161,-3.379822,3.910039,-0.282014,-0.463436,11.093715
10.729927,56.732178,-2.388000,4.474614,-0.651445,-0.574805,10.347067
10.745580,57.487488,-1.838684,4.245732,-0.338895,-0.717308,9.625567
10.762991,54.359436,-2.532959,3.650640,-0.156874,-0.731678,8.896883
10.782910,43.029785,-2.578735,4.543279,-0.294587,-0.401765,8.577746
10.798830,34.408569,-2.281189,3.818486,-0.267045,-0.195793,8.977715
10.814841,29.457092,-1.548767,2.689336,-0.431702,0.179028,9.706400
10.836871,30.303955,-1.243591,2.414678,-0.061672,0.746647,10.831460
10.853148,33.050537,-1.335144,1.781438,-0.158071,0.929268,11.015877
10.871004,38.513184,-1.258850,2.017949,-0.182021,0.909509,10.608125
10.889522,41.633606,-0.083923,0.690435,-0.210762,0.833467,9.643530
10.910804,38.383484,0.518799,-0.835444,-0.333506,0.347877,9.074115
10.931506,29.953003,1.663208,-1.926448,-0.137714,0.470023,8.897482
10.948190,21.675110,0.434875,-1.514460,-0.161664,0.919089,9.246555
10.964244,17.631531,0.930786,-1.537349,-0.499960,1.197510,9.847107
10.979860,16.517639,0.907898,-0.980403,-0.484991,1.553170,10.309944
10.995910,19.172668,0.083923,0.011418,-0.335901,1.599274,10.463225
11.011687,21.911621,-0.892639,0.980352,-0.506547,1.692680,10.252464
11.027495,22.857666,-1.098633,2.567266,-0.376018,1.550176,9.732146
11.043084,21.217346,-1.663208,2.300237,-0.305964,1.422642,9.275895
11.059113,17.120361,-1.525879,1.979802,-0.331111,1.201102,9.041781
11.074951,11.116028,-1.205444,2.033208,-0.208965,1.163381,9.049565
11.090742,6.507874,-1.213074,1.361821,-0.183219,1.508862,9.346548
11.106523,3.906250,-0.984192,1.277898,-0.304167,1.796863,9.804595
11.122421,3.700256,-0.770569,0.942205,-0.293989,1.894460,10.127324
11.138327,5.210876,-0.381470,0.118230,-0.283810,1.930386,10.181212
11.154270,6.706238,-0.221252,0.148748,-0.202978,1.802252,10.002783
11.170165,6.904602,-0.129700,-0.232722,-0.223934,1.563349,9.661493
11.185899,5.592346,-0.030518,-0.705745,-0.299377,1.450783,9.424386
11.201540,0.335693,0.526428,-1.132991,-0.216151,1.089135,9.782441
11.217376,-2.182007,0.183105,-1.132991,-0.343685,1.536405,9.376486
11.233121,-6.767273,0.061035,-1.056697,-0.378413,1.574725,9.669875
11.249122,-8.079529,0.175476,-0.789668,-0.384999,1.710643,9.923748
11.264815,-7.278442,-0.083923,-0.156428,-0.332908,1.735790,10.066850
11.280771,-5.775452,-0.556946,0.392888,-0.390388,1.602268,9.999789
11.296675,-4.615784,-0.709534,0.614141,-0.322729,1.465153,9.742924
11.312218,-4.760742,-0.946045,0.781987,-0.238304,1.354982,9.496836
11.327798,-6.828308,-1.045227,0.820134,-0.225132,1.280737,9.351936
11.343435,-9.719849,-0.976562,0.751470,-0.238304,1.244811,9.362714
11.359306,-12.565613,-0.701904,0.423406,-0.250280,1.289718,9.527970
11.375088,-14.289856,-0.511169,-0.133540,-0.230521,1.246009,9.758492
11.390816,-14.396667,-0.305176,-0.469233,-0.214953,1.240620,9.966259
11.406568,-13.290405,-0.061035,-0.583674,-0.246088,1.233435,10.039308
11.422364,-11.672974,-0.083923,-0.499751,-0.258662,1.180146,9.959673
11.438280,-10.780334,-0.091553,-0.476863,-0.279619,1.062191,9.741726
11.454509,-11.489868,0.122070,-0.858333,-0.280217,0.961600,9.559106
11.471297,-13.122559,-0.106812,-0.652339,-0.276625,0.839454,9.510008
11.487300,-14.923096,-0.236511,-0.530269,-0.274828,0.784369,9.592037
11.503067,-15.983582,-0.175476,-0.637080,-0.338297,0.752036,9.736936
11.518723,-16.067505,-0.122070,-0.515010,-0.327519,0.764011,9.866267
11.534654,-14.862061,-0.022888,-0.789668,-0.298180,0.740061,9.957278
11.550402,-13.923645,-0.473022,0.049565,-0.237107,0.702938,9.987216
11.566071,-12.741089,-0.694275,0.392888,-0.250280,0.682581,9.931531
11.581699,-11.878967,-0.671387,0.087712,-0.308958,0.597557,9.808786
11.597258,-12.100220,-0.228882,-0.186946,-0.261656,0.455652,9.686641
11.612811,-12.565613,-0.061035,-0.453975,-0.213157,0.390987,9.636345
11.628367,-13.031006,-0.450134,-0.255610,-0.362845,0.298180,9.653709
11.644065,-13.244629,0.137329,-0.789668,-0.447869,0.188009,9.798009
11.659707,-12.863159,-0.038147,-0.423457,-0.332309,0.386796,9.932130
11.675636,-11.848450,-0.389099,0.141118,-0.214354,0.386197,9.982426
11.691406,-10.482788,-0.846863,0.583623,-0.285007,0.339494,9.963265
11.707245,-9.628296,-0.701904,0.202153,-0.314346,0.257465,9.887223
11.723473,-8.903503,-0.442505,0.141118,-0.261656,0.179028,9.786034
11.739498,-8.880615,-0.480652,0.110601,-0.221539,0.093406,9.661493
11.755479,-9.368896,-0.244141,-0.331904,-0.256267,0.044308,9.653111
11.771450,-9.994507,-0.091553,-0.576045,-0.228724,0.048499,9.744720
11.787412,-10.017395,0.175476,-0.751521,-0.239502,0.094603,9.848904
11.803307,-9.429932,0.160217,-0.728633,-0.262255,0.110171,9.926143
11.819206,-8.369446,0.152588,-0.553157,-0.456251,0.079036,9.995598
11.834869,-6.950378,-0.045776,-0.400569,-0.330513,0.025148,9.956080
11.850554,-5.912781,-0.144958,-0.164058,-0.155078,-0.082628,9.845909
11.866237,-5.157471,-0.022888,-0.301387,-0.296384,-0.179626,9.671073
11.881904,-5.210876,-0.312805,-0.293757,-0.275427,-0.164059,9.677060
11.897506,-5.668640,-0.228882,-0.301387,-0.280217,-0.116158,9.690832
11.913088,-6.072998,-0.213623,-0.179316,-0.311353,-0.123942,9.812978
11.928700,-5.844116,-0.152588,-0.202205,-0.318538,-0.119152,9.893810
11.944306,-4.486084,-0.068665,-0.110652,-0.153880,-0.156874,9.978833
11.960166,-3.005981,-0.373840,-0.011470,-0.285606,-0.184417,9.964463
11.976014,-1.296997,-0.373840,0.049565,-0.312550,-0.209564,9.883032
11.991841,-0.381470,-0.274658,0.041936,-0.310155,-0.214354,9.781842
12.008265,-0.198364,-0.160217,0.011418,-0.276026,-0.226329,9.709992
12.025002,-0.434875,-0.389099,0.049565,-0.263452,-0.240699,9.703405
12.041350,-0.701904,-0.411987,0.095342,-0.260458,-0.252675,9.780046
12.057128,-0.396729,-0.411987,0.225042,-0.274230,-0.222138,9.856687
12.072991,0.610352,-0.358582,0.171636,-0.281415,-0.205373,9.915964
12.088663,1.800537,-0.335693,0.286077,-0.304167,-0.176633,9.934525
12.104519,3.036499,-0.389099,0.064824,-0.317340,-0.138911,9.912970
12.120216,3.929138,-0.114441,0.026677,-0.283810,-0.131726,9.843514
12.135958,4.219055,-0.122070,-0.141169,-0.231119,-0.152084,9.764479
12.151675,4.020691,-0.015259,-0.041987,-0.244292,-0.183219,9.739331
12.167439,3.860474,-0.198364,-0.164058,-0.255070,-0.158071,9.727955
12.183252,3.791809,0.038147,-0.171687,-0.297581,-0.113165,9.772263
12.199003,3.997803,0.061035,-0.148799,-0.302970,-0.094005,9.833336
12.214656,4.470825,0.015259,-0.087764,-0.305964,-0.022753,9.887822
12.230268,5.111694,-0.228882,0.148748,-0.301174,0.032333,9.944105
12.245887,5.973816,-0.267029,0.286077,-0.308359,0.041913,9.772861
12.261429,6.370544,-0.541687,0.484441,-0.329914,0.040117,9.874051
12.277043,6.317139,-0.549316,0.522588,-0.289797,0.017364,9.754300
12.292831,4.013062,-0.610352,0.598882,-0.244891,-0.011975,9.702209
12.308532,5.241394,-0.839233,0.743840,-0.255070,0.020956,9.698017
12.324436,4.234314,-0.785828,0.659917,-0.271236,0.082029,9.746516
12.341263,4.066467,-0.572205,0.377629,-0.287402,0.144899,9.845310
12.357828,4.074097,-0.175476,0.110601,-0.250280,0.198188,9.930334
12.373869,4.928589,-0.068665,-0.148799,-0.286205,0.191602,9.966858
12.389580,5.493164,0.152588,-0.400569,-0.290995,0.190404,9.918359
12.405189,5.950928,0.373840,-0.545527,-0.243693,0.182620,9.837527
12.420897,5.844116,0.381470,-0.591304,-0.228126,0.171244,9.738133
12.436799,5.096436,0.190735,-0.515010,-0.277822,0.195194,9.690233
12.452455,4.211426,0.190735,-0.461604,-0.332908,0.239502,9.734541
12.468155,3.395081,0.213623,-0.270869,-0.338297,0.283211,9.772263
12.483865,2.769470,-0.030518,-0.095393,-0.349673,0.277822,9.819564
12.499574,2.670288,-0.335693,0.270818,-0.353864,0.328118,9.875847
12.515197,2.700806,-0.633240,0.598882,-0.331710,0.311951,9.889619
12.530780,2.952576,-0.793457,0.781987,-0.315544,0.329315,9.844113
12.546346,2.693176,-0.839233,0.926946,-0.294587,0.311951,9.790225
12.561861,2.212524,-0.869751,0.926946,-0.266446,0.307760,9.753701
12.577434,1.396179,-0.656128,0.789617,-0.267643,0.308359,9.736338
12.593176,0.450134,-0.473022,0.499700,-0.234712,0.299976,9.765676
12.609053,-0.007629,-0.366211,0.240300,-0.249681,0.332908,9.818966
12.624903,-0.152588,-0.305176,-0.095393,-0.238304,0.313149,9.863274
12.640773,0.007629,0.061035,-0.453975,-0.252675,0.342488,9.906384
12.656721,0.106812,0.106812,-0.545527,-0.268841,0.338895,9.836928
12.672778,0.190735,0.244141,-0.698115,-0.279020,0.331111,9.818966
12.688695,-0.038147,0.244141,-0.759150,-0.259860,0.153281,9.763281
12.704530,-0.762939,0.221252,-0.621821,-0.304167,0.270637,9.759090
12.720584,-1.205444,-0.007629,-0.461604,-0.311951,0.265248,9.726158
12.736837,-1.747131,-0.190735,-0.179316,-0.320933,0.256267,9.784238
12.752542,-2.052307,-0.297546,0.102971,-0.357457,0.267045,9.838125
12.768166,-2.227783,-0.564575,0.293706,-0.322130,0.276625,9.875248
12.783819,-2.014160,-0.602722,2.284978,-0.313748,0.278421,9.853094
12.799495,-2.098083,-0.679016,0.514959,-0.283211,0.262255,9.834533
12.815085,-2.166748,-0.740051,0.507329,-0.259261,0.229323,9.793219
12.830688,-2.365112,-0.617981,0.331853,-0.260458,0.180824,9.769868
12.846250,-2.532959,-0.442505,0.057195,-0.239502,0.158670,9.757893
12.862749,-2.624512,-0.282288,-0.141169,-0.234712,0.002994,9.812379
12.878821,-2.540588,-0.213623,-0.225093,-0.253872,0.156275,9.832138
12.894641,-2.326965,-0.061035,-0.270869,-0.293390,0.165855,9.867465
12.910356,-1.838684,0.045776,-0.461604,-0.287402,0.169448,9.881835
12.926087,-1.411438,-0.045776,-0.278499,-0.297581,0.120948,9.856687
12.942045,-1.144409,0.038147,-0.156428,-0.308359,0.095801,9.829743
12.957723,-0.907898,-0.167847,-0.133540,-0.317340,0.061073,9.794416
12.973825,-0.938416,-0.282288,-0.041987,-0.301174,0.071851,9.781842
12.989945,-0.801086,-0.282288,0.194524,-0.284409,0.080233,9.805194
13.005941,-0.770569,-0.526428,0.308965,-0.274828,0.102986,9.830341
13.021765,-0.503540,-0.633240,0.362371,-0.276625,0.113165,9.860279
13.037836,-0.175476,-0.495911,0.469182,-0.282612,0.108973,9.851897
13.053712,0.328064,-0.541687,0.431035,-0.256267,0.102387,9.876446
13.069365,0.701904,-0.495911,0.217412,-0.244292,0.076641,9.824953
13.085043,1.182556,-0.411987,0.270818,-0.255070,0.070653,9.808786
13.100798,1.266479,-0.083923,-0.118281,-0.256866,0.089214,9.817169
13.116796,1.296997,-0.190735,-0.080134,-0.242496,0.129331,9.889020
13.132605,-1.487732,-1.586914,-0.156428,-0.279619,0.826881,11.514041
13.148205,12.138367,-1.914978,0.942205,-0.312550,0.771795,11.952329
13.164293,26.260376,-1.365662,3.559087,-0.636476,0.689167,10.511724
13.180349,23.910522,-2.792358,4.337285,-0.317340,0.704136,10.056671
13.196235,21.530151,-1.808167,2.346013,-0.338297,0.510139,11.587687
13.211868,33.905029,-0.778198,1.552556,-0.111368,0.826282,11.331420
13.227706,40.267944,-2.250671,1.186345,0.368234,0.834664,10.218335
13.243759,37.528992,-2.395630,4.245732,-0.128732,0.962199,10.132713
13.259610,37.528992,0.152588,0.537847,-0.505948,0.882565,10.475800
13.275445,43.640137,2.021790,-3.223445,-0.085622,1.521436,10.582378
13.291305,45.822144,3.135681,-4.512813,0.189805,1.239423,10.334494
13.307160,48.515320,2.761841,-4.695918,-0.034129,1.353785,10.040504
13.323017,50.682068,2.426147,-7.320430,-0.422122,1.393901,10.234501
13.338923,54.405212,4.402161,-7.267024,-0.501158,1.492097,9.843514
13.355131,54.679871,3.639221,-8.037593,-0.164658,1.392105,9.750708
13.371362,54.252625,2.120972,-8.739497,-0.259860,2.414180,9.581260
13.387885,55.168152,2.876282,-10.273005,-0.493374,2.760859,9.731547
13.403563,58.609009,4.768372,-11.722590,-0.056882,2.487228,9.880038
13.419525,60.997009,2.838135,-12.165095,-0.083227,2.401606,9.917161
13.435233,64.048767,1.220703,-10.936763,-0.597557,2.831512,9.729751
13.450836,65.742493,3.097534,-9.883906,-0.558040,2.766846,9.435762
13.466918,64.712524,2.685547,-13.286616,-0.288600,2.539320,9.465700
13.482726,67.306519,2.548218,-13.797786,-0.304766,3.139871,9.764479
13.498590,68.016052,2.044678,-11.486079,-0.432900,2.988386,9.677659
13.514334,70.274353,0.564575,-10.189082,-0.357457,3.662584,9.589643
13.530038,74.104309,1.518250,-10.181453,-0.576002,3.297942,9.351337
13.545969,76.766968,2.723694,-11.211421,-0.419128,3.661985,9.262123
13.561814,78.063965,2.731323,-12.516047,-0.274230,4.305048,9.450731
13.577545,84.129333,0.518799,-11.997249,-0.408950,4.331992,9.445941
13.593305,89.073181,-1.014709,-10.974910,-0.746647,3.909869,9.335771
13.609090,93.673706,-0.694275,-11.821773,-0.899330,3.882926,8.728633
13.624938,98.007202,-1.258850,-12.958552,-0.620909,4.267925,8.050842
13.640803,98.197937,-2.258301,-13.469722,-0.661624,3.393743,6.722804
13.656704,88.226318,-0.587463,-10.540034,-0.949625,2.257306,6.114469
13.672586,73.883057,3.440857,-9.838130,-0.711920,2.135160,5.590559
13.688640,62.675476,3.387451,-10.067012,-0.284409,2.293231,5.680372
13.704473,50.285339,6.866455,-10.402705,-0.632884,2.527943,5.954601
13.720202,35.316467,8.964539,-6.198909,-0.367635,3.181185,5.689952
13.735919,24.871826,9.819031,-2.788569,-0.297581,4.498446,7.608961
13.751664,20.729065,4.455566,-0.698115,-0.800535,6.246809,8.519069
13.767352,35.423279,2.403259,0.911687,-1.748963,7.277267,9.526175
13.782910,55.961609,5.966187,4.619573,-1.865121,7.261699,9.701011
13.798459,75.485229,8.193970,10.868047,-1.389111,6.319858,8.162210
13.814032,81.962585,11.337280,12.325261,-1.507665,5.357060,6.655744
13.829647,85.304260,15.609741,16.597723,-1.601071,4.764293,5.333094
13.845311,80.162048,27.297974,17.917608,-1.401086,4.728966,5.755815
13.861062,69.389343,26.214600,22.617315,-0.184417,6.045628,5.794135
13.876859,68.290710,24.589539,23.426031,-0.249082,6.387517,7.401193
13.892592,81.336975,22.071838,30.315374,-0.748444,7.565866,8.972925
13.908353,101.562500,26.100159,35.404179,-0.778381,7.858059,8.074793
13.924227,112.251282,23.475647,39.447758,-0.573607,7.764653,5.807907
13.940115,123.901367,29.716492,38.310978,-0.675395,6.533014,5.189393
13.955988,122.238159,40.390015,37.204716,-0.653840,6.362968,4.418196
13.971810,118.431091,42.205811,40.775272,-0.258063,6.941964,3.465577
13.987742,122.589111,54.100037,39.707157,-0.562830,7.519763,6.743162
14.003609,137.062073,54.237366,44.460270,1.128653,8.068222,5.269027
14.019326,156.982422,57.823181,43.682072,0.560435,8.419691,4.898996
14.035058,180.236816,47.554016,51.601383,1.026266,8.546627,5.789944
14.050835,195.686340,63.796997,47.786686,1.641187,9.495055,5.628280
14.066513,206.100464,65.162659,35.106632,-0.290396,7.752079,3.684722
14.082578,229.919434,64.514160,28.545355,0.682581,3.202740,2.512360
14.098561,224.121094,57.533264,21.053289,3.156636,2.153123,-2.192656
14.114315,104.911804,44.761658,19.504522,2.826123,10.411150,-11.529041
14.129989,144.187927,12.748718,-59.734371,6.924600,19.617605,-5.921701
14.145654,-25.947571,37.933350,-34.290340,-2.202819,-19.551144,15.206562
14.161595,74.447632,13.526917,-32.131222,0.241897,-6.235434,-7.210821
14.177267,99.502563,72.624207,-47.008541,7.050938,4.709207,-13.254054
14.193158,91.377258,62.873840,34.748051,-6.031857,11.120674,-10.915916
14.208989,62.950134,96.931458,-5.382564,2.523752,19.617605,2.235136
14.224815,53.634644,110.603333,-2.620723,-2.251917,-3.087779,-0.874198
14.240648,141.113281,72.502136,-4.116084,2.312990,8.684340,-2.177089
14.256805,157.966614,81.611633,-32.718685,3.065026,17.460890,-2.025604
14.272819,178.253174,85.540771,-20.534540,-0.010778,11.515254,0.332293
14.288561,242.332458,93.627930,6.435369,0.277822,8.441246,2.633308
14.304640,249.969482,76.950073,-17.711664,3.069816,11.248209,-1.429843
14.321076,225.402832,55.801392,-33.473995,1.623823,7.042555,-2.606396
14.336871,193.382263,57.075500,-17.978693,-0.231718,5.797743,-3.565601
14.352833,168.746948,61.378479,0.911687,1.120270,5.122947,-5.231936
14.368525,155.128479,54.794312,13.576482,1.469943,4.187093,-2.859071
14.384157,156.455994,47.149658,14.789556,0.443079,9.659713,-7.059935
14.400006,118.431091,0.289917,-18.886591,-0.829874,-4.687053,-3.244070
14.415936,138.130188,-13.442993,-20.603205,2.233356,5.774392,-6.940783
14.431634,119.644165,0.106812,1.552556,1.509461,3.785927,-10.274650
14.447205,161.026001,-15.296936,3.017400,2.886597,4.432582,-7.807181
14.462816,180.343628,-13.694763,0.110601,1.943558,4.914580,-9.265748
14.478592,200.866699,-10.253906,13.118718,1.845363,4.072731,-9.923181
14.494486,216.651917,-20.324707,15.926335,1.910028,3.051255,-11.301515
14.510440,233.810425,-24.757385,19.596075,2.264491,2.230961,-9.454954
14.526286,231.918335,-29.724121,30.666327,1.638792,1.277743,-8.280796
14.542160,238.136292,-28.198242,33.184025,1.687890,1.570534,-9.401665
14.558043,239.524841,-33.355713,33.695194,0.488584,0.966390,-9.508244
14.573903,227.096558,-34.362793,35.785648,-1.064586,0.625100,-10.301594
14.589829,216.133118,-28.480530,49.022648,-2.378254,-0.040715,-7.741318
14.605802,204.963684,-29.129028,43.926212,-1.522035,-1.084944,-10.175855
14.621746,201.644897,-22.338867,30.475592,-0.946033,-3.272794,-10.768023
14.637622,205.665588,-13.771057,18.588995,-2.262096,-3.287763,-9.705832
14.653253,206.954956,-12.222290,11.898015,-4.093088,-4.148174,-10.315365
14.668924,205.375671,-9.902954,12.599919,-2.530338,-5.360054,-8.264629
14.684675,201.347351,-3.608704,14.095281,-0.987946,-5.319338,-8.477187
14.700384,205.924988,-0.663757,10.631536,-1.807641,-5.379813,-8.194575
14.716038,216.194153,2.288818,-2.414729,-1.447191,-7.841294,-8.192779
14.731830,215.332031,-0.633240,-10.242488,-0.745450,-7.140751,-7.261117
14.747830,212.570190,-1.579285,-18.108393,1.367556,-7.973619,-7.876637
14.763855,203.521729,-5.104065,-24.898554,2.336342,-7.250323,-5.525326
14.779539,186.805725,-10.292053,-24.196650,-0.664019,-9.128018,-4.846338
14.795227,176.437378,-12.756348,-20.160700,0.603545,-8.345446,-5.077457
14.811085,163.581848,-13.397217,-16.803766,-0.502355,-8.729846,-5.015187
14.826869,178.726196,9.513855,-40.432003,4.080514,-11.724818,1.181926
14.842711,163.917542,-17.654419,-36.342648,0.023950,-10.470427,-2.427368
14.858799,162.986755,-18.089294,-11.943843,-1.140029,-9.501042,-12.346341
14.874735,102.989197,-13.221741,-21.007563,-1.922602,-16.861536,-3.360827
14.890633,64.216614,-17.440796,-9.006526,0.831072,-7.246131,-0.562247
14.906509,44.288635,-10.459900,0.461553,0.326920,-7.465875,-2.063924
14.922240,25.085449,-6.065369,6.183599,-0.537682,-9.666299,-1.278956
14.938021,-10.353088,-4.837036,4.535649,-0.022753,-10.605146,0.285590
14.953750,-33.279419,-15.846252,-4.680659,0.030536,-7.674242,0.364027
14.969431,-62.049866,-9.216309,-9.410884,0.294587,-8.096363,1.628597
14.985190,-113.502502,-11.543274,-13.149287,-2.735112,-19.617605,5.775574
15.000911,-78.033447,-10.139465,2.994512,-0.786764,0.734672,-3.484769
15.016911,-130.928040,0.663757,-6.931331,1.969305,-13.954581,-5.222955
15.033019,-94.505310,-2.204895,-7.907893,5.460046,-8.084988,-6.873123
15.048711,-97.282410,3.791809,12.172673,-0.259860,-10.153087,-7.099452
15.064315,-71.960449,10.574341,12.615178,1.632206,-10.859018,-5.269658
15.079957,-61.637878,-2.609253,19.229864,-0.653242,-8.611892,-5.939664
15.095738,-55.053711,9.529114,16.063665,-0.266446,-7.562873,-5.544486
15.111383,-56.861877,2.517700,15.575383,-0.153880,-7.871830,-6.365379
15.127101,-63.911438,4.432678,11.035893,-0.905317,-7.764653,-5.513949
15.142880,-72.319031,3.440857,7.915471,-0.114362,-7.362290,-5.795364
15.158653,-79.353333,2.082825,-0.629451,-0.354463,-7.821535,-5.900146
15.174422,-83.091736,0.694275,-4.825618,-0.318538,-7.773634,-6.823427
15.190207,-79.536438,-1.060486,-8.045222,-0.522114,-7.164102,-6.930604
15.206087,-75.332642,-2.006531,-9.090449,0.344284,-8.229287,-7.222197
15.221999,-71.815491,0.137329,-11.821773,1.048420,-6.782695,-7.023411
15.237659,-71.884155,-1.785278,-10.242488,-0.809517,-6.467152,-7.238962
15.253368,-71.052551,-3.524780,-3.322627,-0.767604,-6.376740,-6.950363
15.269082,-75.599670,-0.480652,2.635930,0.756826,-6.200107,-7.218006
15.284814,-81.069946,0.404358,2.696965,0.774789,-6.315667,-8.167631
15.300474,-82.405090,-0.007629,-0.759150,1.038241,-6.146219,-7.864661
15.316125,-85.472107,-2.555847,-1.575496,-0.501757,-6.128855,-8.286184
15.331868,-80.657959,-0.862122,1.712773,-0.692759,-5.646258,-9.175935
15.347833,-77.476501,-0.778198,3.208135,-0.455054,-5.340894,-8.969963
15.363781,-74.844360,0.167847,1.758550,-0.589774,-4.961882,-8.161644
15.379428,-74.302673,-1.037598,-0.545527,0.213755,-4.981042,-8.401745
15.395157,-75.431824,1.060486,-1.720454,0.083826,-4.205056,-8.212538
15.410912,-77.957153,0.534058,-1.224543,-0.088616,-4.345164,-8.693936
15.426577,-80.688477,0.495911,-0.667598,-0.211360,-3.120710,-8.917871
15.442322,-79.986572,-0.267029,1.010869,0.034728,-3.870352,-9.497466
15.458247,-78.193665,-0.457764,-0.026729,0.108973,-4.170328,-9.055585
15.474106,-75.965881,0.480652,-1.972224,-0.019160,-3.670367,-9.363345
15.489966,-73.036194,0.785828,0.125859,-0.078437,-2.746489,-9.692660
15.505887,-70.693970,0.198364,-0.049617,0.067659,-3.000959,-9.328617
15.522086,-69.564819,-1.174927,-0.141169,-0.215552,-2.696193,-9.083127
15.537827,-70.503235,-0.541687,0.911687,0.161664,-2.351310,-9.195095
15.553463,-69.892883,0.137329,0.186895,-0.147294,-2.262096,-9.490879
15.569131,-69.793701,-0.320435,0.118230,-0.252076,-2.141746,-9.359753
15.584829,-68.405151,-0.999451,0.156377,0.001198,-1.943558,-9.624402
15.600399,-68.977356,0.892639,-0.759150,-0.046703,-1.056802,-9.177132
15.616013,-65.719604,0.808716,-0.553157,-0.001796,-1.631607,-9.793850
15.631587,-62.988281,-0.183105,-0.072505,-0.178429,-1.357377,-9.814207
15.647139,-61.210632,0.228882,-0.110652,0.064067,-0.986748,-9.613026
15.662915,-61.141968,-0.396729,-0.545527,-0.034728,-0.893342,-9.402863
15.678610,-59.188843,-0.205994,0.156377,-0.131726,-0.570613,-9.613625
15.694288,-56.549072,-0.267029,-0.041987,-0.028740,-0.213157,-9.836960
15.709893,-54.649353,-0.267029,0.118230,0.126337,-0.300575,-9.958508
15.725720,-54.931641,-0.152588,0.125859,-0.367635,1.530417,-9.753134
15.741539,-55.465698,-0.625610,0.904058,0.116158,0.108973,-9.374123
15.757340,-52.650452,-0.656128,1.041387,-0.097597,0.395777,-10.044727
15.773447,-50.361633,-0.289917,0.606511,-0.220342,0.512534,-9.432201
15.789174,-48.622131,-0.831604,1.125310,0.128732,0.728086,-9.847138
15.804907,-44.113159,0.244141,0.614141,-0.205972,1.004711,-9.529799
15.820560,-44.822693,0.083923,0.125859,0.166454,1.616039,-9.526805
15.836262,-44.456482,0.602722,-1.560237,-0.071851,1.116678,-9.337598
15.852017,-43.228149,1.571655,-1.972224,-0.267643,1.409469,-9.790855
15.867670,-42.739868,1.350403,-1.338984,-0.431104,1.551374,-9.886657
15.883296,-40.245056,0.656128,-0.659968,0.072449,1.313069,-9.448368
15.898891,-36.499023,0.396729,-1.438166,-0.067061,1.548380,-9.635180
15.914641,-32.859802,0.755310,-0.324275,-0.165855,1.857338,-9.905218
15.930648,-29.655457,0.244141,-0.583674,0.055085,1.785487,-9.590872
15.946694,-26.809692,-0.595093,0.202153,-0.090412,1.932781,-9.530397
15.962795,-24.833679,-0.434875,1.758550,-0.033530,2.122586,-9.410048
15.978893,-24.070740,-1.968384,0.446294,0.013173,2.116599,-9.183120
15.994692,-23.094177,-0.534058,0.598882,-0.065863,2.449506,-8.633463
16.010485,-22.567749,-0.061035,0.667546,-0.141306,2.537523,-9.539379
16.026380,-21.804810,-0.625610,-0.103022,-0.221539,2.375859,-9.174138
16.042293,-20.126343,0.053406,0.087712,-0.077239,3.895499,-9.799837
16.058242,-16.853333,-0.518799,0.186895,-0.279020,2.150129,-9.978865
16.074061,-15.213013,-0.358582,-0.598933,-0.171843,2.545906,-9.490879
16.089902,-11.993408,-0.549316,-0.255610,-0.168849,2.542313,-9.490281
16.105688,-8.605957,0.297546,0.003789,-0.004191,2.709366,-9.357357
16.121339,-7.148743,-0.572205,-0.438716,-0.023950,2.671046,-9.147793
16.136971,-5.523682,0.053406,-0.057246,-0.056283,2.667453,-9.157971
16.152697,-4.005432,0.038147,-0.110652,0.142504,2.707570,-9.262156
16.168441,-2.944946,-0.442505,-0.392939,-0.069456,2.696792,-9.396875
16.184004,-1.792908,0.099182,-0.041987,-0.043709,2.687811,-9.300475
16.199639,0.808716,-0.404358,0.026677,-0.071851,2.713557,-9.369931
16.215220,3.486633,-0.335693,0.064824,-0.025148,2.693798,-9.244791
16.230825,6.080627,-0.625610,0.469182,-0.023351,2.652484,-9.372326
16.246639,8.560181,-0.701904,0.392888,-0.047900,2.630929,-9.348376
16.262411,10.879517,-0.762939,0.431035,0.004790,2.565665,-9.359154
16.278273,12.184143,-0.808716,0.583623,-0.107177,2.498005,-9.338796
16.294206,13.648987,-1.007080,0.659917,-0.113763,2.492018,-9.317840
16.310636,15.121460,-1.136780,0.598882,-0.042512,2.483635,-9.316642
16.326896,16.838074,-0.495911,0.125859,-0.063468,2.354903,-9.388493
16.342935,18.417358,-0.312805,0.110601,-0.107177,2.337539,-9.507046
16.358648,20.118713,-0.053406,0.034307,-0.043709,2.221381,-9.492676
16.374297,21.621704,-0.305176,0.087712,-0.088616,2.154320,-9.515429
16.389960,24.009705,-0.106812,0.034307,-0.035327,2.123784,-9.501657
16.406052,25.917053,-0.457764,-0.202205,-0.063468,2.068698,-9.462139
16.421729,27.664185,-0.579834,0.186895,0.075443,1.945355,-9.435195
16.437401,29.762268,-0.976562,-0.118281,0.070054,1.884880,-9.529799
16.453166,30.769348,-0.465393,0.751470,-0.113763,1.713637,-9.499262
16.468847,31.753540,-1.060486,1.102422,0.025148,1.638193,-9.501657
16.484412,33.035278,-1.289368,0.675176,-0.103585,1.550775,-9.524410
16.499941,34.622192,-0.869751,0.827764,0.101788,1.519640,-9.612427
16.515498,36.270142,-0.442505,-0.415828,0.076042,1.346600,-9.738764
16.531087,37.071228,0.320435,0.049565,-0.278421,1.031056,-9.772294
16.546668,39.215088,-0.785828,-0.072505,-0.033530,1.108894,-9.782474
16.562395,40.985107,-0.503540,-0.629451,-0.127535,0.992736,-9.683080
16.578132,42.076111,1.029968,-0.469233,-0.115560,0.754431,-9.610032
16.593889,42.480469,0.068665,-1.308467,0.001796,0.508942,-9.589075
16.609745,44.723511,0.549316,-1.346614,-0.122146,0.634081,-9.910007
16.625622,46.188354,0.320435,-0.530269,-0.126936,0.384401,-9.765109
16.641463,46.142578,-0.267029,-0.202205,0.274230,0.186812,-9.574705
16.657311,48.683167,-0.183105,-0.858333,-0.038320,0.046703,-9.672901
16.673218,49.240112,0.183105,-1.499202,0.095202,-0.289199,-10.378833
16.688889,50.956726,-0.709534,0.164006,-0.182021,-0.349673,-10.093825
16.704533,50.643921,-1.411438,0.339482,0.143102,-0.588576,-9.421424
16.720306,51.979065,-0.030518,-0.537898,-0.220342,-0.622705,-9.679487
16.736009,53.611755,-0.389099,0.827764,0.093406,-0.826282,-9.978865
16.751616,53.840637,-0.717163,-0.423457,-0.073048,-1.203497,-9.514231
16.767160,54.321289,-0.877380,-0.576045,0.076042,-1.177152,-9.647155
16.784014,54.214478,0.061035,-0.316646,-0.186213,-1.353186,-9.610032
16.799838,55.259705,0.038147,-0.309016,-0.019759,-1.407673,-9.853127
16.815459,55.458069,0.122070,-0.530269,0.051493,-1.819616,-9.581890
16.831345,55.587769,0.389099,-0.965144,0.095202,-1.990860,-9.250180
16.846988,54.733276,0.282288,-2.178218,-0.026944,-1.991459,-9.432201
16.862576,57.075500,0.297546,-1.560237,-0.016765,-2.401606,-9.857916
16.878320,57.769775,-0.190735,-0.370051,0.220941,-2.494413,-9.911804
16.894258,57.960510,-0.373840,-0.843074,0.216151,-2.665657,-9.666913
16.910115,57.838440,-0.274658,-0.919368,0.128134,-2.830913,-9.632186
16.925934,56.930542,-0.305176,-0.354792,-0.246088,-3.179987,-9.246588
16.941743,56.976318,-0.717163,0.514959,0.038320,-3.358416,-9.441183
16.957517,57.281494,-0.839233,0.804875,0.073048,-3.424279,-9.228625
16.973338,56.327820,-0.694275,0.354741,-0.048499,-3.754193,-9.157373
16.989057,56.755066,-1.792908,0.774358,-0.087418,-3.890709,-9.210064
17.004753,56.777954,-0.617981,0.263188,0.220941,-3.915258,-9.061572
17.020422,55.450439,-0.602722,-1.316096,0.085622,-4.184099,-8.759800
17.036013,54.977417,-0.671387,-0.171687,-0.232317,-4.268524,-8.878353
17.051662,54.405212,-0.823975,0.232671,-0.105980,-4.455934,-8.930445
17.067243,52.688599,-0.984192,-0.385310,-0.059875,-4.673881,-8.665196
17.082879,52.696228,-0.320435,-0.438716,0.076641,-4.721781,-8.749022
17.098434,51.933289,0.671387,-1.056697,-0.120948,-4.978647,-8.856798
17.114566,50.582886,0.518799,-0.324275,-0.107177,-5.287005,-8.576581
17.131152,50.041199,-0.434875,0.141118,0.235909,-5.274432,-8.346060
17.147158,48.507690,0.419617,-0.080134,0.343685,-5.400769,-8.441262
17.163143,47.554016,0.473022,-0.782039,0.068258,-5.579198,-8.337079
17.179073,45.639038,-0.213623,-0.194575,-0.261057,-5.734874,-8.167032
17.194763,44.158936,-0.259399,0.125859,0.237706,-5.828879,-8.258043
17.210378,43.312073,-0.221252,-0.522639,0.067061,-6.000721,-8.195174
17.226468,42.129517,-0.045776,-0.179316,-0.225731,-6.092331,-7.927530
17.242174,40.626526,-0.648499,0.202153,0.201182,-6.223458,-7.937709
17.258165,40.992737,-0.137329,-0.225093,0.031135,-6.301296,-7.793409
17.274653,36.170959,0.320435,-1.110103,-0.025148,-6.777905,-7.657492
17.290394,35.148621,-0.434875,-1.346614,-0.146695,-6.062992,-7.365300
17.306348,33.081055,-0.007629,-0.492122,-0.226329,-7.021598,-7.676652
17.322387,31.059265,-1.350403,1.651738,-0.064666,-6.693481,-7.569475
17.338331,26.069641,-0.366211,1.628850,0.117356,-6.482121,-7.453916
17.353984,22.438049,-1.052856,0.888799,-0.264650,-6.856342,-7.394040
17.369825,19.905090,-0.167847,2.643559,-0.435894,-7.038962,-7.322788
17.385468,18.638611,0.717163,3.536199,-0.101190,-6.936575,-7.378472
17.401206,17.471313,1.266479,3.086064,-0.023351,-7.145541,-7.366497
17.416786,17.250061,0.488281,2.330754,0.064666,-7.097042,-7.210821
17.432345,16.204834,0.015259,2.468083,-0.162263,-7.014413,-7.225191
17.447993,13.534546,0.305176,2.071355,0.011376,-6.901249,-7.170704
17.463839,11.169434,0.022888,0.331853,-0.005988,-6.825806,-7.178488
17.479745,7.453918,-0.679016,-1.194026,-0.095202,-7.055727,-7.114421
17.495565,5.271912,-1.029968,-1.781489,-0.189207,-7.075487,-7.150946
17.511806,4.264832,-0.129700,-1.667048,-0.035925,-7.126380,-7.209623
17.527872,-19.348145,-0.740051,-2.758052,-0.013173,-9.111253,-7.874840
17.544763,15.686035,1.434326,-1.987483,0.001198,-11.000923,-9.529799
17.560566,65.765381,1.327515,0.301335,0.354463,-9.220226,-9.314247
17.576185,66.452026,-1.747131,1.407598,-0.564027,-8.562794,-8.654419
17.591872,67.443848,-1.953125,3.490422,-0.601150,-8.013736,-8.135898
17.607812,78.582764,-0.694275,8.335088,0.218546,-8.560997,-7.807181
17.623427,89.263916,0.968933,4.222844,1.480122,-8.367001,-7.491637
17.639057,96.778870,-1.968384,-0.080134,0.709525,-7.945477,-7.838915
17.654699,105.140686,-2.845764,0.041936,-0.843047,-8.334668,-6.753372
17.670357,107.360840,-1.701355,5.512212,-0.245490,-8.319100,-5.568436
17.685974,113.685608,2.273560,4.802678,1.316063,-7.401808,-5.844462
17.701586,117.446899,-2.258301,1.781438,-0.510738,-7.664062,-5.802549
17.717195,128.570557,-1.304626,2.803777,-0.066462,-7.617959,-6.094143
17.732915,135.826111,-0.343323,4.131291,0.643063,-7.498208,-5.361866
17.748516,143.684387,0.976562,5.290959,-0.289797,-8.196356,-3.281193
17.764247,148.696899,-0.053406,8.357976,0.040715,-6.592890,-3.682957
17.780693,134.002686,0.862122,8.464787,0.594564,-4.321214,-3.387771
17.797233,105.484009,-0.350952,9.014104,0.361049,-1.044229,-0.329331
17.812949,77.476501,-7.019043,8.640264,-0.108375,-4.193679,-2.909965
17.828581,57.212830,1.510620,4.825566,0.153880,-5.081034,-3.550034
17.844442,28.472900,4.867554,7.923100,0.070054,-5.798941,-4.181121
17.860245,10.597229,4.447937,9.120915,-0.886157,-6.986272,-3.117733
17.875937,29.472351,-0.030518,12.927983,-0.636476,-10.126143,-3.766783
17.891569,68.534851,0.602722,8.419011,-0.288600,-10.924283,-5.494191
17.907318,88.996887,-0.213623,3.719304,0.316741,-9.138796,-3.283588
17.922882,98.808289,-3.067017,-3.360774,-0.198188,-9.231004,-2.931520
17.938502,108.680725,-4.714966,-2.635982,-0.708926,-7.844288,-2.003450
17.954231,107.429504,-8.018494,-1.529719,-1.076561,-8.104147,-2.271093
17.969914,109.100342,-10.169983,-1.575496,-0.762215,-8.088580,-1.980098
17.985563,112.670898,-8.094788,-6.465938,1.666934,-8.798104,-1.667548
18.001161,130.882263,-17.326355,-2.056148,-1.491498,-9.879456,-1.878909
18.016703,142.913818,-9.056091,-1.613643,-0.627495,-8.496332,0.138296
18.032285,155.525208,-15.144348,0.965093,-0.665815,-8.604707,-1.428645
18.047916,177.299500,2.326965,-50.273922,7.753876,-11.282338,10.593156
18.063760,133.323669,-15.144348,-45.444515,-2.478845,-19.617605,-2.198644
18.079495,107.063293,-24.826050,35.495731,-0.154479,-0.995131,-0.838273
18.095270,121.940613,-57.159424,-9.983088,2.480641,-3.617677,4.012839
18.111072,109.405518,-30.426025,-5.077388,0.622705,-12.813953,7.408977
18.126939,109.321594,-33.172607,31.635260,-2.128574,-10.109378,15.979554
18.142808,79.971313,-27.740479,9.372685,1.563948,-0.117955,2.421349
18.158613,65.116882,-19.912720,2.399419,-2.847080,-10.648257,3.445220
18.174532,55.084229,-10.108948,12.378667,0.294587,-8.781339,5.504937
18.190501,53.314209,-21.896362,3.261540,-1.501078,-7.247329,4.587644
18.206196,50.498962,-16.349792,5.084966,-1.099913,-10.219548,5.706118
18.221899,52.154541,-11.466980,3.917668,0.870590,-8.217312,4.975637
18.237616,42.671204,-9.956360,2.437566,-0.279020,-8.539442,7.120976
18.253314,40.184021,-0.801086,-0.926997,0.282612,-7.977211,5.557627
18.268956,29.197693,2.471924,-1.422908,0.394579,-8.311915,6.343194
18.284623,21.385193,3.288269,-3.246333,0.855621,-8.308922,6.097704
18.300258,13.954163,5.462646,-3.368403,0.202379,-8.315508,5.828863
18.315864,6.561279,5.653381,-2.895381,-0.061672,-8.278984,5.823474
18.331670,2.433777,4.394531,-1.377131,-0.173639,-8.531059,5.636662
18.347596,-2.738953,2.365112,-0.225093,-0.101788,-8.481363,5.812098
18.363397,-7.415771,1.480103,-0.125911,0.111368,-8.346045,5.774376
18.379271,-12.390137,0.923157,-0.171687,0.091011,-8.322094,5.973163
18.395141,-17.745972,0.358582,0.431035,0.193997,-8.448431,5.833054
18.411014,-24.284363,0.801086,0.209783,0.090412,-8.528665,5.719890
18.426913,-30.372620,2.250671,-0.003840,-0.202978,-8.529862,5.471406
18.442689,-38.528442,2.212524,-0.644709,-0.519719,-8.754993,5.486375
18.458682,-42.129517,1.235962,-1.224543,-0.512534,-8.647817,5.277410
18.474444,-46.791077,1.319885,-1.667048,-0.492775,-9.107061,6.857524
18.491334,-46.455383,4.081726,-0.316646,1.714834,-6.889274,7.461668
18.507345,-136.177063,-3.158569,0.904058,0.283810,-6.531817,5.801919
18.522980,-203.964233,-8.819580,-4.741694,0.174836,-11.247012,6.623411
18.538667,-194.068909,4.402161,2.399419,-0.246687,-10.486593,3.606884
18.555227,-186.180115,2.761841,-4.604365,-0.102986,-10.867401,4.293655
18.570951,-177.955627,0.015259,-3.414180,-0.507744,-9.505833,3.296729
18.586564,-181.114197,-3.601074,-2.338435,-0.042512,-10.869198,3.987093
18.602246,-159.454346,0.518799,-1.186396,0.180824,-10.639276,4.170312
18.617775,-137.947083,-0.862122,0.080083,0.077239,-9.289083,1.889056
18.633441,-111.038208,-0.434875,-2.895381,0.447270,-10.938054,3.193743
18.649020,-71.914673,-3.005981,-6.069209,-0.040715,-7.082672,1.517828
18.664890,-40.374756,1.335144,4.474614,-0.019160,-8.583750,-0.983770
18.680673,-37.742615,2.662659,6.504033,-0.579595,-4.438570,-2.183076
18.696485,-14.831543,2.029419,4.131291,-0.608335,-6.386320,-2.402220
18.712966,17.181396,-0.419617,1.094792,0.140109,-10.542876,-3.282989
18.729344,13.565063,-1.884460,-8.205440,-0.373024,-11.166779,-2.745906
18.745003,-27.587891,-4.158020,-12.958552,-0.196392,-8.272397,-3.736246
18.760662,-73.020935,-0.373840,-5.291011,-0.231119,-7.664062,-1.956747
18.776690,-105.964661,2.204895,0.156377,-0.123942,-9.147179,-2.324981
18.792362,-150.054932,0.305176,0.423406,0.013173,-8.935219,-2.295642
18.808132,-196.327209,-2.609253,1.155828,0.729882,-8.428074,-0.291011
18.823963,-222.625732,-9.338379,-4.039790,-0.095801,-8.677754,0.004175
18.839527,-245.864868,-9.162903,2.597783,-5.652845,-19.617605,-19.793655
18.855092,-170.982361,-1.747131,-8.594539,12.555291,-1.398691,-19.817604
18.870658,-246.047974,-46.455383,-34.687069,0.406555,-15.852036,-14.988647
18.886194,-181.571960,-53.459167,5.863164,1.520837,-19.617605,-19.817604
18.901768,-197.853088,7.087708,-20.122553,3.363805,-8.116721,-1.650783
18.917378,-204.338074,-2.326965,4.505132,-2.163301,-10.085427,-10.079455
18.932973,-195.228577,9.307861,9.006474,-2.716551,-2.486030,-5.297799
18.948632,-196.823120,-10.757446,20.511602,0.622106,-7.722142,-7.341350
18.964394,-191.551208,-0.160217,3.391240,2.536326,-1.026865,-7.686232
18.980269,-189.453125,-2.861023,0.774358,0.449066,-3.469186,-8.045485
18.996104,-195.228577,1.953125,4.100774,-2.296225,-4.704417,-8.028121
19.016434,-196.174622,-3.013611,0.164006,0.862207,-5.242099,-6.737804
19.035814,-196.464539,1.388550,-6.580379,-0.657433,-4.287085,-10.217169
19.055028,-190.277100,1.304626,-3.269221,-0.011975,-2.235751,-9.795646
19.071357,-183.578491,0.167847,-5.741145,0.439486,-1.146017,-10.239323
19.089205,-184.997559,0.213623,-0.225093,-0.368833,-1.768123,-9.513632
19.107369,-180.091858,-0.129700,3.299687,-0.012574,-1.231639,-9.696253
19.125927,-178.726196,-2.052307,1.338933,-0.047302,-0.382604,-10.393802
19.145149,-172.378540,-2.586365,4.009221,0.285007,0.307161,-8.853805
19.166545,-171.440125,-2.220154,0.614141,0.316143,2.237547,-10.705154
19.183412,-166.465759,-3.486633,5.084966,-0.424517,2.753674,-9.979464
19.201783,-165.527344,-1.792908,4.215215,0.334105,2.316583,-11.207510
19.217384,-163.360596,-2.586365,1.979802,-1.091530,2.314786,-8.961580
19.233027,-160.598755,-1.480103,3.948186,0.393382,2.544110,-8.823268
19.248902,-153.869629,-3.005981,2.735112,1.104703,3.884722,-8.028720
19.264732,-150.459290,-5.287170,5.382512,0.828078,4.291875,-8.923859
19.280538,-152.069092,-5.493164,5.275701,-0.359253,4.626579,-7.131186
19.296358,-143.493652,-9.513855,4.802678,-0.091011,4.604425,-9.144799
19.313213,-138.404846,-9.567261,5.443547,-0.306563,5.749843,-7.573667
19.329471,-133.918762,-9.017944,5.916570,-0.820893,6.119275,-7.161124
19.345784,-128.669739,-8.621216,5.733464,0.285007,5.737269,-7.179686
19.361693,-123.916626,-7.522583,3.925298,0.416733,5.956414,-7.143162
19.377696,-122.695923,-7.133484,5.710576,0.015568,6.259384,-5.772013
19.393824,-123.321533,-7.064819,-10.807063,3.191364,12.596605,-3.333284
19.410060,-126.457214,-9.162903,-1.728083,-1.293311,7.374265,-4.049994
19.426511,-87.821960,3.067017,9.456609,-1.093925,6.527626,-4.418228
19.442083,-81.832886,6.065369,12.439702,0.644859,8.887918,-5.664237
19.458028,-88.989258,-4.158020,-0.446345,0.019759,5.453459,-4.991237
19.473783,-82.389832,-7.827759,2.246831,-0.871188,7.149133,-6.114501
19.489421,-99.227905,-1.228333,8.884404,-0.341290,8.376581,-5.384020
19.505042,-105.491638,-1.113892,5.275701,0.080233,7.625742,-4.062568
19.521479,-99.929810,-7.507324,0.888799,0.050295,9.166937,-3.855399
19.537095,-94.772339,-5.538940,1.773809,-0.647853,9.405242,-3.102764
19.552629,-77.583313,1.365662,7.083867,-0.410746,8.555609,-3.116535
19.568178,-65.895081,-0.267029,1.110051,-0.035327,9.160950,-3.671581
19.583776,-69.923401,-1.060486,-2.109553,-0.452060,8.844209,-3.688346
19.599335,-69.084167,-0.846863,0.087712,-0.407752,8.360415,-3.071628
19.615279,-72.280884,2.273560,4.901860,-0.413141,8.854986,-3.111146
19.631096,-78.239441,0.724792,1.796697,0.113165,9.088500,-2.932717
19.646867,-77.270508,-2.212524,-0.812556,0.215552,9.138197,-2.430961
19.662832,-70.541382,-1.800537,0.667546,-0.417931,9.713001,-2.307617
19.678827,-62.522888,0.801086,3.742192,-0.091011,9.416019,-1.902859
19.694813,-56.594849,0.396729,3.253911,0.277822,9.396260,-2.044165
19.710539,-53.848267,-1.373291,-1.262690,0.138312,9.247170,-1.944173
19.726142,-52.871704,-1.213074,0.110601,-0.129331,9.204060,-1.708264
19.741825,-54.153442,0.099182,2.803777,-0.058678,9.277108,-1.602284
19.757441,-55.519104,0.190735,3.147099,0.005389,9.461525,-1.298116
19.772996,-55.290222,-0.831604,-1.392390,0.102387,9.393866,-1.259796
19.788498,-51.605225,-2.258301,-0.026729,0.056283,9.501042,-0.922098
19.811065,-45.631409,-0.900269,0.560735,-0.014370,9.767488,-0.956227
19.831010,-44.326782,-0.785828,2.437566,0.065863,9.635762,-0.549074
19.847437,-44.181824,-1.907349,0.766729,0.200583,9.473499,-0.514346
19.867862,-42.190552,-2.822876,0.392888,-0.046104,9.704619,-0.434712
19.884835,-40.870667,-1.083374,1.743291,-0.061672,9.510024,-0.252690
19.901209,-37.689209,0.038147,1.918767,0.121547,9.623188,-0.191617
19.920072,-34.370422,-0.343323,0.385259,0.035327,9.778266,0.399952
19.936350,-31.829834,-0.740051,0.141118,0.068258,9.566307,0.340077
19.952139,-31.776428,-3.562927,1.979802,0.246088,9.529782,-0.341905
19.967793,-30.342102,-2.601624,3.658269,0.107177,9.488468,-0.099409
19.983434,-29.930115,-3.036499,2.948735,0.126337,9.472302,0.075427
19.999363,-30.296326,-4.135132,1.964543,0.044907,9.417815,0.118538
20.015194,-29.159546,-3.417969,1.613591,-0.086221,9.474098,0.155062
20.031010,-28.656006,-2.197266,2.315495,-0.117356,9.556128,0.161049
20.046922,-28.121948,-1.174927,2.368901,0.006586,9.433383,0.156858
20.062843,-28.831482,-1.647949,1.834844,0.058678,9.427995,-0.283227
20.078976,-30.654907,-2.326965,1.697515,0.019160,9.410031,0.013157
20.094844,-31.219482,-1.998901,2.574895,-0.065863,9.422606,0.161648
20.110801,-31.829834,-1.342773,2.994512,-0.005988,9.498648,0.186197
20.126599,-33.660889,-0.640869,2.765630,-0.294587,9.626781,0.067045
20.142311,-36.598206,0.228882,2.819036,-0.130529,9.114246,0.010762
20.157981,-39.306641,1.045227,3.009770,-0.107776,9.245973,0.087402
20.173740,-42.472839,1.075745,3.078435,0.068258,8.438851,0.276609
20.189485,-48.370361,1.617432,3.314946,0.090412,9.022038,0.161648
20.205370,-52.185059,1.609802,3.765080,0.044308,8.904682,0.152068
20.220955,-56.617737,2.037048,4.100774,-0.034129,8.839418,0.017348
20.236602,-60.600281,2.624512,4.718755,0.056882,8.848998,0.300559
20.252206,-67.268372,2.922058,5.199407,0.003593,8.842412,-0.467045
20.267901,-75.508118,3.723145,5.008672,0.076641,8.400531,0.489167
20.283913,-81.367493,4.096985,5.771611,0.086819,8.167615,0.537666
20.299843,-88.661194,4.768372,6.572698,0.144300,8.017328,0.431686
20.315899,-96.343994,4.989624,7.183049,0.207768,6.765930,0.657417
20.331829,-103.492737,5.638123,7.579778,0.141306,7.019204,0.377200
20.347610,-113.243103,5.844116,7.572148,0.177830,6.805448,0.441865
20.363431,-202.629089,66.696167,-62.450436,3.712879,-3.802692,16.883076
20.379463,-165.473938,-15.571594,22.045111,1.572330,4.706812,4.854090
20.395390,-177.261353,20.889282,-5.573298,2.047742,6.624624,11.192509
20.411273,-160.957336,7.492065,-20.053888,-3.924239,8.398136,4.834930
20.426964,-142.333984,-15.731812,-31.375910,-1.007106,9.343570,6.701848
20.442798,-132.713318,0.503540,-26.638056,2.277663,7.707772,7.183845
20.458702,-127.876282,0.343323,-20.359064,-0.846041,6.365962,7.685602
20.474365,-124.732971,3.883362,-21.549250,-1.761537,5.115163,7.213783
20.490044,-128.417969,-2.220154,-16.841913,-1.274150,5.411547,6.830580
20.505761,-127.349854,0.701904,-13.179805,-0.399968,6.206693,7.385626
20.521372,-122.764587,-0.610352,-4.581477,-0.717308,5.914501,8.299326
20.536912,-119.606018,-1.464844,2.071355,-0.508942,5.618716,9.416003
20.552442,-110.626221,-0.274658,5.992864,-0.042512,5.115762,8.939993
20.568099,-105.964661,-1.441956,6.679509,-0.392783,4.091292,8.769348
20.583731,-104.454041,-2.449036,6.702397,-0.040715,3.847599,8.991487
20.599613,-101.692200,-1.922607,6.435369,-0.317340,3.685935,9.127403
20.615491,-95.245361,0.526428,5.832646,-0.411943,4.627777,8.762163
20.631277,-92.651367,-0.297546,4.047368,0.049098,3.508105,8.942389
20.647044,-93.559265,-1.945496,0.621770,0.290995,3.142864,8.590919
20.662836,-91.224670,-1.724243,1.422856,-0.390388,2.548301,9.485459
20.678648,-86.296082,1.365662,1.155828,-0.255668,2.788402,10.145287
20.694465,-79.849243,0.175476,0.530217,0.466430,2.430945,10.403350
20.710243,-72.776794,-1.678467,1.338933,0.122146,1.711241,9.947099
20.726027,-65.444946,-0.411987,-0.217463,-0.102387,1.683100,9.997395
20.741684,-59.585571,1.510620,-3.215816,0.174836,1.496887,9.951290
20.757333,-54.809570,0.572205,-4.970576,-0.379012,1.395099,9.644129
20.772938,-54.145813,0.717163,-3.101375,0.015568,0.941841,9.486656
20.788563,-53.634644,1.487732,-4.581477,-0.128134,0.723895,9.639339
20.804146,-51.048279,0.747681,-6.382014,-0.321531,0.636476,9.729751
20.819757,-45.532227,2.471924,-3.299739,-0.190404,0.476010,9.755497
20.835390,-40.115356,1.815796,-3.253963,-0.100591,0.501757,10.100380
20.851016,-34.584045,1.701355,-4.573848,-0.258662,0.156275,9.847706
20.866828,-31.738281,2.906799,-3.467586,-0.069456,0.244292,9.629160
20.882693,-28.381348,1.281738,-5.352046,-0.132924,0.542472,9.868063
20.898577,-24.848938,3.044128,-5.023982,-0.178429,0.544268,10.316531
20.914460,-19.805908,2.502441,-3.543880,-0.209564,0.340692,10.278211
20.930241,-14.640808,1.220703,-3.490474,-0.550855,-0.044308,10.223125
20.946061,-8.941650,1.281738,-3.002192,-0.829275,0.014370,10.090800
20.961971,-4.936218,1.518250,-2.849605,-0.447869,0.028740,9.921352
20.977897,-0.938416,1.129150,-4.215266,-0.404758,0.141905,9.813577
20.993663,1.625061,0.579834,-2.231624,-0.276026,0.183818,9.795614
21.009373,4.562378,0.442505,-0.286128,-0.177231,0.233514,9.809385
21.025047,7.911682,-0.938416,0.743840,-0.353864,0.207169,9.871058
21.040820,12.397766,-0.930786,1.735662,-0.640668,0.201182,9.924346
21.056445,16.983032,-0.366211,2.155278,-0.528102,0.228126,9.867465
21.072087,21.408081,-1.747131,2.643559,-0.520917,0.314346,9.824354
21.088101,24.963379,-2.029419,3.688787,-0.600551,0.439486,9.804595
21.103731,27.458191,-1.525879,3.917668,-0.427511,0.614921,9.793818
21.119337,30.334473,-1.869202,3.734563,-0.329914,0.765808,9.867465
21.135015,33.966064,-2.563477,4.650090,-0.070653,0.804727,9.847706
21.150615,37.322998,-3.028870,4.917119,-0.270637,0.859812,9.823755
21.166355,40.191650,-2.517700,4.764531,-0.268242,0.959804,9.824354
21.182071,43.472290,-1.266479,4.116033,-0.091011,1.347198,9.940513
21.197779,46.752930,-1.914978,4.054997,-0.013173,1.470542,9.817768
21.213548,49.278259,-1.625061,3.223393,-0.240699,1.764531,9.884230
21.229270,51.979065,-0.251770,1.758550,-0.288600,1.950743,9.683048
21.245003,54.687500,-0.198364,1.476262,0.056882,1.916016,9.656703
21.260976,57.594299,-0.953674,1.201604,-0.487985,1.753154,9.605808
21.276653,60.791016,0.366211,-0.324275,-0.305964,2.157912,9.466898
21.292295,61.622620,0.732422,0.736211,-0.008981,2.226769,9.128002
21.307923,63.369751,-0.648499,-0.118281,-0.276625,2.340533,9.284876
21.323499,66.528320,0.526428,2.101872,-0.225132,2.830314,9.442947
21.339215,70.686340,-0.434875,2.796147,-0.496368,3.218906,9.360918
21.354794,72.814941,-1.083374,2.239202,-0.569416,2.931504,9.298648
21.370367,74.821472,-0.228882,2.948735,-0.317340,3.408113,9.741726
21.385974,76.454163,-2.166748,7.175420,-0.248483,4.146378,8.993881
21.401539,78.720093,-1.892090,2.727483,-1.089734,3.626658,8.950771
21.417207,79.971313,-0.534058,4.024480,0.771196,4.061354,9.215421
21.432881,83.671570,-1.640320,5.519841,-0.597557,4.575685,8.688517
21.448608,84.701538,-0.495911,3.414128,-0.353864,5.114564,8.554994
21.464247,86.914062,-0.381470,0.431035,0.168250,5.209766,8.628641
21.480003,89.317322,-0.999451,1.956914,-0.461041,5.048701,8.319084
21.495823,89.736938,-1.091003,1.087163,0.046703,5.112768,8.219092
21.511617,92.391968,-2.311707,1.827214,-0.019759,5.740862,8.019707
21.527437,94.032288,-1.052856,2.201055,-1.143023,5.498366,8.096947
21.543203,96.694946,-1.602173,2.147649,-0.377216,6.144423,7.917919
21.558921,97.297668,-2.555847,3.643010,-0.193398,6.491701,7.453285
21.574661,98.190308,-1.800537,5.146001,-1.153801,6.365962,7.022780
21.590312,98.930359,0.137329,3.963445,0.762215,6.521039,7.191031
21.606041,98.037720,-2.380371,6.168340,-0.823887,6.426436,6.862913
21.621657,99.632263,-1.472473,6.038640,-0.279619,7.562274,6.636583
21.637215,101.409912,-0.740051,5.512212,0.250878,7.150331,5.666002
21.652786,100.418091,-2.273560,4.497502,-0.129930,7.310797,5.952207
21.668409,105.270386,-0.740051,4.047368,-0.030536,8.264015,5.585170
21.684224,106.559753,0.244141,2.902959,0.621508,18.377584,14.293461
21.700056,109.588623,17.807007,8.434270,0.037722,8.700507,2.897359
21.715894,102.050781,3.753662,18.749212,-0.995729,9.207054,10.967976
21.731755,85.975647,-12.725830,6.557439,-1.110690,2.538721,4.548725
21.747564,77.194214,-2.113342,-4.123713,1.528621,13.860577,1.955518
21.763420,61.790466,-2.586365,-8.983638,0.944835,9.095685,1.777687
21.779262,42.587280,-10.902405,-3.261592,-0.835862,6.068381,0.713700
21.795095,24.269104,0.892639,2.880071,-0.496368,6.045029,-0.474230
21.810954,-0.236511,2.769470,7.923100,0.323328,8.399334,-0.398188
21.826622,-39.726257,0.343323,4.695867,0.669408,9.201665,0.308942
21.842557,-60.043335,-7.247925,-16.101862,1.971101,10.792557,0.213141
21.858367,-59.486389,-2.281189,-2.338435,-1.830394,9.748328,2.162687
21.874263,-70.030212,8.049011,0.850652,-1.641187,7.869435,5.850418
21.890008,-75.958252,-4.295349,-5.855586,0.051493,9.144184,6.282719
21.905668,-54.718018,1.350403,-6.382014,-0.983754,8.023315,3.608680
21.921258,-50.567627,-3.021240,-9.593989,2.726730,10.857223,7.110797
21.936821,-35.224915,-12.084961,-15.460994,0.764610,6.800658,6.128839
21.952368,-35.072327,-5.226135,-13.202693,-0.511337,8.588540,7.102415
21.967971,-25.039673,7.026672,-5.046870,-0.938249,7.917934,4.951687
21.983704,-28.388977,2.349854,-2.758052,0.119152,7.522158,5.112154
21.999459,-27.717590,-3.807068,-1.720454,-0.853226,8.128696,4.888219
22.015186,-31.455994,0.434875,1.499150,-1.055605,7.367080,5.383988
22.031030,-30.189514,1.876831,4.573796,0.392184,7.410789,5.872572
22.046871,-28.205872,1.419067,5.245183,0.001198,7.671846,6.226436
22.062735,-22.819519,3.021240,5.985234,-0.437690,8.059839,6.253979
22.078518,-17.379761,3.570557,3.292058,0.643063,8.025112,6.292299
22.094498,-11.581421,-0.534058,-0.469233,0.363444,7.768845,5.968972
22.110226,-9.819031,-0.823975,-2.033259,-0.208367,7.529343,5.775574
22.125903,-10.131836,1.564026,-1.430537,0.143701,7.225175,5.801919
22.141600,-11.054993,-0.320435,-3.200557,-0.259261,7.238946,5.934244
22.157260,-10.154724,-2.395630,-3.177669,-0.185614,7.399413,6.252781
22.172904,-6.248474,-0.968933,-1.972224,-0.523312,7.535330,6.405464
22.188475,-1.510620,0.007629,-0.408198,-0.299976,7.746691,6.344391
22.204097,2.784729,0.122070,1.033757,-0.321531,7.734117,6.126444
22.219731,5.218506,-0.389099,1.216863,-0.213157,7.616162,5.993521
22.235329,6.622314,-0.541687,1.262639,-0.131127,7.422764,5.858801
22.251128,6.774902,0.625610,1.636479,-0.173639,7.486232,6.022261
22.267006,8.415222,0.305176,1.407598,0.013173,7.500004,6.103093
22.282983,11.077881,-0.656128,0.438665,-0.077838,7.631730,6.146802
22.298981,15.213013,-1.022339,-0.209834,-0.025148,7.623946,6.014477
22.315150,17.623901,-0.862122,-0.095393,-0.118553,7.799980,5.873770
22.330933,19.058228,-0.564575,-0.301387,-0.290995,7.686815,5.733661
22.348054,19.805908,-0.877380,-0.064875,-0.247286,7.695198,5.648638
22.363764,20.484924,-1.129150,0.835393,-0.229922,7.849677,5.736056
22.379650,23.246765,-0.442505,1.621221,-0.112566,7.968829,5.717494
22.395555,26.847839,0.205994,2.002690,-0.202978,7.759264,5.746833
22.411563,28.640747,-0.366211,1.895879,-0.188009,7.930509,5.566608
22.427392,31.394958,-0.335693,1.674626,-0.002994,8.022118,5.489369
22.443067,32.928467,-0.770569,2.048467,-0.016765,7.993378,5.181010
22.458674,41.648865,0.122070,6.664250,-0.640668,7.223978,3.192545
22.474412,29.907227,2.273560,6.801579,-0.387993,8.557405,3.778726
22.490079,30.174255,2.471924,6.557439,-0.312550,8.267009,4.194861
22.505703,26.718140,5.599976,8.884404,-0.316143,8.997490,3.789504
22.521265,23.040771,8.773804,10.799382,-0.377216,8.572972,3.577544
22.536787,16.593933,6.889343,11.234258,-0.192200,9.065747,3.652988
22.552391,14.511108,6.546021,10.990117,0.140109,8.461005,3.724240
22.568020,11.558533,5.310059,9.632085,0.331111,8.823252,3.977513
22.583913,5.912781,2.548218,6.389592,0.405357,8.474178,4.012240
22.600233,1.960754,0.732422,0.797246,0.457449,8.446635,3.899076
22.615951,-0.030518,-1.152039,-0.904109,0.586780,8.554411,3.998469
22.631805,-2.784729,-2.738953,-4.016902,0.520917,8.517887,3.945779
22.647607,-6.042480,-3.387451,-5.390193,0.130529,8.547825,4.076307
22.663489,-8.621216,-3.150940,-6.237056,0.174836,8.566386,4.145763
22.679283,-10.101318,-3.509521,-6.176021,-0.034728,8.506511,4.322994
22.695226,-11.940002,-4.234314,-6.221797,-0.693358,8.754993,4.343352
22.711201,-12.016296,-2.426147,-5.558040,-0.250878,8.072413,4.589440
22.726849,-13.359070,-2.403259,-4.901912,0.098196,8.392148,4.725358
22.742567,-10.803223,-2.159119,-4.329707,0.097597,8.394544,4.912169
22.758332,-9.284973,-0.617981,-3.017451,-0.358055,8.083191,5.036710
22.774209,-7.865906,-0.686646,-3.536250,-0.300575,8.202942,5.251064
22.789857,-5.798340,-0.350952,-0.522639,-0.296982,8.161029,5.035513
22.805443,-4.440308,-0.190735,0.431035,-0.016765,8.369994,5.064253
22.820992,-1.930237,0.343323,0.957463,-0.051493,8.252639,5.062457
22.836551,0.328064,0.404358,0.736211,-0.014370,8.226892,5.087006
22.852238,2.059937,-0.152588,0.102971,0.032932,8.231682,5.023538
22.868011,3.372192,-0.732422,-0.232722,0.049697,8.417895,4.940909
22.883860,4.600525,-0.556946,0.362371,-0.228126,8.322693,4.861874
22.899806,5.065918,0.610352,1.338933,-0.120350,8.355624,4.728352
22.915678,4.989624,0.450134,1.743291,-0.025746,8.379575,4.610995
22.931501,4.142761,0.572205,1.789067,-0.069456,8.349637,4.565490
22.947497,2.822876,0.511169,1.560186,0.035327,8.423284,4.491843
22.963172,1.617432,0.244141,1.049016,0.055085,8.404722,4.505016
22.979046,0.694275,0.228882,0.575994,0.035327,8.436457,4.515793
22.994986,-0.358582,-0.213623,-0.064875,0.080233,8.563992,4.502022
23.010802,-1.083374,-0.617981,-0.515010,-0.019759,8.367001,4.594230
23.026478,-1.579285,-0.823975,-0.972773,0.005389,8.287965,4.591835
23.042158,-1.937866,-1.091003,-1.155879,0.013173,8.368198,4.651711
23.057875,-2.143860,-0.663757,-0.988032,-0.040715,8.343649,4.696618
23.073603,-2.258301,-0.747681,-0.827815,-0.093406,8.330477,4.785832
23.089389,-1.708984,-0.427246,-0.629451,-0.092807,8.300539,4.813973
23.105472,-1.068115,-0.572205,-0.331904,-0.074246,8.331675,4.874448
23.121443,0.076294,-0.335693,0.095342,-0.034728,8.292755,4.860077
23.137514,0.907898,-0.076294,0.217412,-0.039518,8.302335,4.712784
23.153362,1.472473,-0.160217,2.277349,-0.053888,8.319100,4.797208
23.169025,2.037048,-0.213623,0.362371,0.011975,8.340655,4.737932
23.184847,2.067566,-0.144958,0.530217,-0.053888,8.362809,4.743919
23.200594,2.113342,0.137329,0.675176,-0.062271,8.404123,4.660692
23.216328,1.777649,0.091553,0.598882,-0.015568,8.371192,4.631952
23.232116,1.373291,-0.122070,0.453923,-0.053289,8.401729,4.594829
23.247998,0.694275,-0.152588,0.316594,0.040715,8.398136,4.610995
23.263849,0.122070,-0.228882,-0.011470,-0.010179,8.405920,4.625964
23.279797,-0.335693,-0.312805,-0.453975,-0.002395,8.399334,4.645124
23.295621,-0.747681,-0.480652,-0.507380,-0.055684,8.364007,4.694222
23.311606,-0.762939,-0.473022,-0.423457,-0.045505,8.338261,4.722963
23.327278,-0.617981,-0.434875,-0.392939,-0.074246,8.347241,4.749308
23.342960,-0.778198,-0.213623,-0.141169,-0.000599,8.339458,4.733740
23.358770,-0.282288,-0.350952,-0.103022,-0.110171,8.345446,4.772060
23.374451,0.076294,-0.381470,-0.080134,-0.023950,8.365803,4.798406
23.390096,0.572205,-0.183105,0.087712,-0.037722,8.340655,4.778048
23.405702,0.907898,-0.198364,0.202153,-0.065863,8.350236,4.790023
23.421244,1.228333,-0.213623,0.240300,-0.029339,8.358020,4.730148
23.436858,1.358032,-0.129700,0.209783,-0.051493,8.378377,4.678655
23.452509,1.060486,-0.038147,0.286077,-0.016765,8.357421,4.691827
23.468365,1.007080,-0.236511,0.247930,-0.004790,8.399932,4.640335
23.484216,0.671387,-0.198364,0.080083,0.031135,8.402926,4.673266
23.500133,0.480652,-0.076294,0.003789,-0.053289,8.406519,4.618181
23.516294,0.106812,-0.267029,-0.103022,-0.145497,8.388556,4.655303
23.532817,-0.076294,-0.434875,-0.103022,-0.018561,8.338261,4.699012
23.549264,-0.251770,-0.488281,-0.209834,-0.041314,8.329279,4.694222
23.564932,-0.434875,-0.335693,-0.225093,-0.005988,8.387958,4.724160
23.580563,-0.251770,-0.267029,-0.125911,-0.078437,8.358020,4.761882
23.596210,0.068665,-0.282288,-0.057246,-0.031135,8.364007,4.758289
23.612187,0.183105,-0.259399,-0.095393,-0.002395,8.321495,4.766672
23.627870,0.335693,-0.343323,0.080083,-0.062869,8.339458,4.780443
23.643531,0.610352,-0.305176,-0.026729,-0.015568,8.379575,4.758888
23.659242,0.831604,-0.221252,0.110601,0.008383,8.345446,4.737333
23.674932,0.778198,-0.198364,0.102971,-0.080233,8.384963,4.715777
23.690533,0.892639,-0.305176,0.194524,0.020358,8.352631,4.676260
23.706115,0.816345,-0.122070,0.034307,-0.123344,8.374784,4.660692
23.721734,0.389099,-0.282288,0.019048,0.012574,8.361612,4.679254
23.737315,0.259399,-0.312805,-0.003840,-0.061672,8.359217,4.665482
23.752927,-0.030518,-0.320435,-0.049617,0.001796,8.376581,4.717574
23.768746,0.152588,-0.129700,-0.064875,-0.100591,8.367001,4.705000
23.784485,0.030518,-0.373840,-0.141169,0.024549,8.383766,4.554712
23.800249,0.183105,-0.236511,-0.064875,-0.047302,8.356223,4.726555
23.816124,0.053406,-0.289917,-0.095393,-0.031734,8.356822,4.727154
23.831935,0.083923,-0.312805,0.095342,-0.026345,8.334668,4.719370
23.847795,0.274658,-0.396729,-0.034358,-0.085023,8.345446,4.764875
23.863698,0.350952,-0.106812,0.049565,-0.001796,8.353828,4.737333
23.879692,0.549316,-0.259399,0.064824,-0.101190,8.404123,4.740925
23.895730,0.801086,-0.205994,0.034307,0.009580,8.365205,4.556509
23.911645,0.663757,-0.259399,0.041936,-0.054487,8.343051,4.696618
23.927295,0.556946,-0.274658,0.019048,-0.024549,8.384963,4.698414
23.942959,0.434875,-0.244141,-0.003840,-0.013771,8.362809,4.672069
23.958781,0.450134,-0.259399,-0.057246,-0.071252,8.367001,4.697216
23.974504,0.175476,-0.297546,-0.057246,0.012574,8.375383,4.692426
23.990050,0.183105,-0.526428,-0.087764,-0.104183,8.337063,4.722963
24.005655,0.091553,-0.267029,-0.118281,0.044907,8.375982,4.727154
24.021193,0.129700,-0.404358,-0.019099,-0.099393,8.358618,4.709191
24.036866,0.236511,-0.450134,-0.026729,-0.018561,8.375982,4.722963
24.052643,0.221252,-0.267029,0.057195,-0.031734,8.377778,4.726555
24.068511,0.259399,-0.320435,-0.011470,-0.040715,8.359217,4.689432
24.084362,0.312805,-0.389099,0.049565,-0.074246,8.364606,4.742722
24.100212,0.564575,-0.312805,0.019048,-0.013173,8.340056,4.741524
24.116679,0.457764,-0.274658,-0.072505,-0.085622,8.341254,4.599619
24.132668,0.495911,-0.259399,0.049565,-0.037123,8.363408,4.730148
24.148635,0.495911,-0.228882,0.072454,-0.013771,8.363408,4.687037
24.164486,0.335693,-0.221252,0.080083,-0.082029,8.374186,4.678655
24.180387,0.289917,-0.175476,0.011418,-0.002994,8.375383,4.687636
24.196079,0.259399,-0.305176,-0.041987,-0.044907,8.372390,4.718173
24.211748,0.205994,-0.320435,-0.064875,-0.047900,8.382568,4.687636
24.227384,0.106812,-0.205994,0.003789,-0.030536,8.383167,4.706796
24.243035,0.259399,-0.350952,-0.019099,-0.048499,8.340056,4.687636
24.258781,0.106812,-0.221252,-0.003840,-0.014370,8.371192,4.708592
24.274372,0.274658,-0.289917,0.041936,0.017364,8.332871,4.740925
24.289969,0.373840,-0.267029,0.003789,-0.062271,8.361013,4.727154
24.305579,0.350952,-0.228882,0.110601,-0.040117,8.359816,4.709790
24.321217,0.480652,-0.335693,0.072454,-0.000599,8.363408,4.744518
24.336885,0.488281,-0.267029,0.064824,-0.073647,8.364007,4.700809
24.352775,0.404358,-0.236511,0.049565,0.031135,8.366402,4.674463
24.368574,0.534058,-0.396729,-0.080134,-0.062271,8.373587,4.689432
24.384379,0.457764,-0.274658,-0.026729,-0.020956,8.369994,4.704401
24.400132,0.289917,-0.358582,-0.087764,-0.012574,8.358020,4.833134
24.415965,0.282288,-0.465393,0.034307,-0.058678,8.375982,4.563694
24.431880,0.282288,-0.152588,-0.003840,-0.015568,8.380174,4.722963
24.447730,0.282288,-0.373840,0.080083,-0.030536,8.372989,4.693624
24.463515,0.343323,-0.198364,0.125859,-0.079634,8.379575,4.722963
24.479520,0.274658,-0.312805,0.080083,0.026345,8.361612,4.700210
24.495315,0.450134,-1.922607,0.041936,-0.099992,8.355624,4.689432
24.510971,0.411987,-0.289917,0.057195,-0.031135,8.380174,4.706198
24.526569,0.526428,-0.152588,-0.049617,-0.027543,8.349637,4.721167
24.542298,0.488281,-0.236511,0.049565,-0.046703,8.360415,4.706796
24.557841,0.343323,-0.335693,0.095342,-0.007784,8.359816,4.716376
24.573437,0.495911,-0.381470,0.148748,-0.056882,8.363408,4.700210
24.588986,0.610352,-0.267029,0.080083,-0.016166,8.371791,4.707395
24.604613,0.480652,-0.328064,0.019048,-0.035925,8.351433,4.693025
24.620275,0.259399,-0.198364,-0.080134,-0.041913,8.375982,4.696618
24.635933,0.396729,-0.205994,0.019048,-0.041913,8.368198,4.710988
24.651733,0.305176,-0.198364,-0.019099,-0.073647,8.341853,4.714580
24.667477,0.282288,-0.259399,0.019048,-0.010179,8.384365,4.689432
24.683317,0.320435,-0.411987,0.026677,-0.079036,8.376581,4.702006
24.699232,0.320435,-0.251770,0.019048,-0.017364,8.371192,4.693025
24.715207,0.450134,-0.221252,0.118230,-0.047900,8.368797,4.697815
24.731203,0.419617,-0.175476,0.125859,-0.013771,8.344248,4.696019
24.747110,0.434875,-0.213623,-0.095393,-0.019759,8.372989,4.719969
24.762834,0.427246,-0.228882,0.064824,-0.056882,8.351433,4.731944
24.778538,0.465393,-0.076294,0.064824,-0.052092,8.349038,4.712784
24.794144,0.411987,-0.244141,0.019048,-0.010778,8.363408,4.697216
24.809872,0.442505,-0.175476,0.049565,-0.064666,8.343051,4.696618
24.825467,0.061035,-0.312805,0.019048,0.004790,8.374784,4.734938
24.841043,0.305176,-0.289917,0.034307,-0.065863,8.346643,4.697815
24.856657,0.305176,-0.335693,-0.011470,-0.017364,8.373587,4.724759
24.872318,0.076294,-0.221252,0.049565,-0.028740,8.395741,4.693025
24.887904,0.381470,-0.297546,0.064824,-0.050894,8.370593,4.695420
24.903578,0.213623,-0.244141,0.080083,-0.014969,8.388556,4.727753
24.919345,0.343323,-0.244141,0.049565,-0.071252,8.356223,4.706796
24.935174,0.572205,-0.358582,0.057195,0.005988,8.354427,4.696019
24.951031,0.442505,-0.114441,0.003789,-0.058678,8.360415,4.720568
24.966903,0.404358,-0.282288,0.080083,-0.015568,8.368198,4.707395
24.982865,0.404358,-0.175476,0.080083,-0.037722,8.361612,4.847504
24.998768,0.259399,-0.289917,0.003789,-0.025148,8.380772,4.705000
25.014520,0.465393,-0.221252,0.095342,-0.037123,8.357421,4.719370
25.030641,0.251770,-0.190735,0.041936,-0.047900,8.359217,4.734339
25.046501,0.404358,-0.350952,-0.103022,0.026345,8.367001,4.673266
25.062205,0.297546,-0.198364,0.003789,-0.083826,8.350236,4.707994
25.077928,0.183105,-0.274658,0.118230,-0.004790,8.376581,4.706198
25.093717,0.335693,-0.373840,-0.087764,-0.008981,8.371192,4.685840
25.109471,0.244141,-0.198364,-0.041987,-0.072449,8.378976,4.708592
25.125099,0.389099,-0.167847,0.125859,-0.033530,8.387359,4.704401
25.140665,0.183105,-0.358582,0.057195,0.002395,8.350236,4.730746
25.156295,0.404358,-0.267029,0.095342,-0.083227,8.354427,4.714580
25.171861,0.244141,-0.366211,0.102971,-0.129331,8.364007,4.710389
25.187445,0.541687,-0.129700,-0.057246,-0.096998,8.350236,4.704401
25.203166,0.434875,-0.221252,0.080083,-0.031135,8.367001,4.703204
25.219027,0.297546,-0.205994,-0.003840,-0.006586,8.372989,4.566089
25.234891,0.411987,-0.274658,0.011418,-0.064666,8.338261,4.559503
25.250762,0.312805,-0.228882,0.064824,0.002395,8.379575,4.696618
25.266639,0.320435,-0.289917,-0.011470,-0.020956,8.365803,4.709790
25.282602,0.320435,-0.167847,-0.064875,-0.007185,8.344847,4.733740
25.298525,0.358582,-0.221252,0.133489,-0.062271,8.361013,4.730148
25.314386,0.381470,-0.427246,-0.133540,-0.023351,8.351433,4.715777
25.330331,0.335693,-0.183105,0.072454,-0.049098,8.370593,4.698414
25.345971,0.373840,-0.282288,0.080083,-0.063468,8.392148,4.741524
25.361659,0.419617,-0.259399,0.041936,-0.018561,8.347241,4.687636
25.377427,0.305176,-0.175476,-0.034358,-0.046104,8.396938,4.720568
25.393116,0.297546,-0.396729,-0.019099,-0.032333,8.377179,4.552318
25.409096,0.411987,-0.205994,0.087712,-0.038919,8.376581,4.686439
25.425019,0.358582,-0.289917,0.034307,-0.008383,8.376581,4.721167
25.440597,0.305176,-0.152588,0.011418,-0.100591,8.357421,4.713981
25.456140,0.305176,-0.274658,-0.072505,-0.010778,8.344847,4.699611
25.471780,0.289917,-0.213623,0.026677,-0.061672,8.361013,4.701407
25.487369,0.320435,-0.251770,0.041936,-0.037722,8.354427,4.728950
25.503270,0.343323,-0.350952,0.087712,-0.038320,8.355025,4.700210
25.519127,0.396729,-0.396729,-0.034358,-0.068857,8.398735,4.703204
25.534938,0.267029,-0.244141,0.064824,0.002395,8.372390,4.717574
25.550762,0.366211,-0.106812,0.019048,-0.047900,8.364007,4.692426
25.566714,0.343323,-0.198364,-0.003840,-0.056283,8.359816,4.713981
25.582456,0.434875,-0.282288,-0.019099,-0.050894,8.351433,4.687037
25.598553,0.373840,-0.198364,0.156377,-0.011975,8.377778,4.551719
25.614347,0.328064,-0.259399,0.148748,-0.060474,8.393945,4.552916
25.630300,0.366211,-0.381470,0.011418,-0.045505,8.344847,4.697815
25.645955,0.320435,-0.205994,0.057195,-0.016765,8.363408,4.710988
25.661614,0.350952,-0.297546,0.125859,-0.046703,8.355025,4.733740
25.677350,0.373840,-0.236511,-0.019099,-0.067659,8.362210,4.722963
25.693092,0.183105,-0.312805,0.057195,-0.040117,8.351433,4.693624
25.708741,0.343323,-0.160217,-0.072505,-0.005988,8.374186,4.703204
25.724382,0.450134,-0.389099,-0.080134,-0.053289,8.370593,4.699012
25.739972,0.358582,-0.267029,0.003789,-0.027543,8.395741,4.708592
25.755644,0.312805,-0.289917,0.141118,-0.029938,8.372390,4.684642
25.771263,0.419617,-0.183105,0.080083,-0.049697,8.392148,4.685840
25.787128,0.343323,-0.282288,0.202153,-0.038919,8.380174,4.719969
25.802948,0.518799,-0.289917,0.095342,-0.040117,8.374784,4.669075
25.818732,0.480652,-0.328064,0.171636,-0.104782,8.381371,4.686439
25.834561,0.419617,-0.343323,-0.019099,0.009580,8.360415,4.706198
25.850375,0.320435,-0.381470,0.049565,-0.142504,8.386760,4.689432
25.866218,0.251770,-0.213623,0.072454,0.046703,8.378976,4.682247
25.882498,0.335693,-0.259399,0.087712,-0.122146,8.353230,4.666081
25.898440,0.198364,-0.328064,-0.003840,-0.008383,8.364007,4.692426
25.914262,0.312805,-0.236511,0.019048,-0.029938,8.367001,4.710988
25.930277,0.221252,-0.320435,0.019048,-0.073048,8.340655,4.710988
25.945999,0.419617,-0.129700,0.080083,-0.046104,8.408914,4.707395
25.961671,0.442505,-0.190735,0.003789,-0.032932,8.358618,4.706796
25.977355,0.457764,-0.274658,0.041936,-0.046703,8.365205,4.722364
25.993022,0.350952,-0.267029,0.034307,-0.026944,8.345446,4.729549
26.008915,0.335693,-0.343323,0.003789,-0.035925,8.362210,4.700210
26.024761,0.297546,-0.221252,0.064824,-0.037123,8.355025,4.700210
26.040378,0.328064,-0.183105,-0.003840,-0.007784,8.355624,4.673266
26.055944,0.381470,-0.251770,-0.019099,-0.020358,8.386760,4.692426
26.071624,0.183105,-0.167847,0.034307,-0.028740,8.371192,4.835528
26.087367,0.289917,-0.350952,0.064824,-0.046703,8.378976,4.688235
26.103116,0.328064,-0.305176,-0.041987,-0.068258,8.350236,4.691827
26.118941,0.411987,-0.175476,0.049565,-0.045505,8.384963,4.693025
26.134946,0.495911,-0.350952,0.087712,-0.035925,8.368198,4.693624
26.150758,0.312805,-0.312805,0.011418,-0.038320,8.362210,4.713383
26.166531,0.381470,-0.297546,0.095342,-0.034129,8.345446,4.705599
26.182372,0.289917,-0.259399,0.072454,-0.037123,8.372390,4.688834
26.198135,0.167847,-0.190735,0.026677,0.119751,8.380174,4.682846
26.214013,0.236511,-0.312805,0.034307,-0.083227,8.392747,4.705599
26.230700,0.305176,-0.221252,0.026677,-0.040117,8.374186,4.666081
26.248016,0.419617,-0.213623,0.011418,-0.020956,8.371791,4.688235
26.263871,0.328064,-0.267029,-0.049617,-0.071252,8.380772,4.673865
26.279598,0.465393,-0.244141,-0.041987,-0.056283,8.345446,4.680451
26.295352,0.434875,-0.305176,0.049565,-0.011975,8.365803,4.693624
26.311012,0.450134,-0.259399,0.019048,-0.055085,8.369994,4.696618
26.327014,0.404358,-0.152588,0.057195,0.004790,8.353230,4.707395
26.342880,0.518799,-0.312805,-0.072505,-0.054487,8.353828,4.701407
26.358601,0.350952,-0.335693,0.064824,-0.023950,8.380174,4.716376
26.374294,0.320435,-0.213623,-0.026729,-0.013173,8.364606,4.698414
26.389964,0.251770,-0.389099,-0.041987,-0.033530,8.366402,4.727753
26.405530,0.343323,-0.152588,0.171636,-0.045505,8.383766,4.715777
