Timestamp,Gyro_X_dps,Gyro_Y_dps,Gyro_Z_dps,Accel_X_mps2,Accel_Y_mps2,Accel_Z_mps2
0.005506,0.335693,-0.274658,-0.026729,-0.034728,8.589738,4.314612
0.021196,0.396729,-0.213623,0.011418,-0.047900,8.532257,4.298445
0.036981,0.411987,-0.328064,0.087712,-0.019759,8.583151,4.288267
0.052640,0.366211,-0.305176,0.011418,-0.045505,8.573571,4.317007
0.068289,0.358582,-0.221252,-0.019099,-0.035327,8.556208,4.284674
0.084014,0.259399,-0.289917,-0.019099,-0.081431,8.577164,4.301439
0.099602,0.335693,-0.114441,0.034307,-0.047302,8.586743,4.285872
0.115187,0.244141,-0.373840,-0.064875,-0.049697,8.582553,4.273897
0.130818,0.228882,-0.328064,-0.019099,-0.072449,8.561596,4.286470
0.146408,0.190735,-0.289917,-0.049617,-0.056882,8.587342,4.288267
0.162257,0.427246,-0.152588,-0.057246,-0.050295,8.577763,4.292458
0.178093,0.465393,-0.251770,-0.011470,-0.058678,8.579558,4.291260
0.193901,0.465393,-0.305176,0.049565,-0.049098,8.579558,4.289464
0.209841,0.305176,-0.221252,0.064824,-0.068258,8.606503,4.275094
0.225714,0.328064,-0.083923,0.095342,-0.028740,8.557405,4.285872
0.241655,0.373840,-0.343323,-0.003840,-0.035327,8.731643,4.270903
0.257579,0.312805,-0.282288,0.041936,-0.040715,8.570578,4.279884
0.273515,0.312805,-0.335693,0.072454,-0.055684,8.563992,4.287069
0.289471,0.305176,-0.282288,0.011418,-0.065264,8.584349,4.298445
0.305167,0.511169,-0.305176,0.072454,-0.033530,8.569380,4.281680
0.320818,0.358582,-0.259399,-0.011470,-0.066462,8.589139,4.278687
0.336570,0.228882,-0.221252,0.057195,-0.038320,8.566386,4.314612
0.352376,0.274658,-0.160217,0.057195,-0.037123,8.589738,4.271502
0.368001,0.366211,-0.259399,0.118230,-0.047900,8.579558,4.296051
0.383613,0.160217,-0.274658,-0.026729,-0.042512,8.566386,4.271502
0.399207,0.381470,-0.152588,-0.034358,-0.061073,8.569979,4.267909
0.414798,0.419617,-0.175476,-0.118281,-0.050894,8.574769,4.275094
0.430516,0.251770,-0.404358,-0.118281,-0.058678,8.587941,4.270903
0.446358,0.404358,-0.274658,0.019048,-0.082628,8.565787,4.258928
0.462224,0.251770,-0.190735,0.072454,-0.035925,8.584349,4.269705
0.478061,0.312805,-0.236511,0.087712,-0.063468,8.588540,4.277489
0.493817,0.167847,-0.259399,-0.026729,-0.048499,8.729846,4.293056
0.509654,0.358582,-0.274658,-0.034358,-0.046104,8.721463,4.254736
0.525499,0.343323,-0.129700,0.026677,-0.045505,8.543633,4.276890
0.541387,0.373840,-0.267029,0.011418,-0.046104,8.564590,4.307427
0.557289,0.350952,-0.282288,-0.026729,-0.050295,8.578362,4.290662
0.573246,0.358582,-0.228882,0.087712,-0.053289,8.572972,4.276890
0.589349,0.167847,-0.228882,0.003789,-0.068857,8.575966,4.296649
0.605065,0.358582,-0.244141,0.034307,-0.077239,8.575966,4.287069
0.620798,0.297546,-0.297546,0.003789,-0.069456,8.571177,4.269106
0.636522,0.305176,-0.305176,0.095342,-0.076641,8.587342,4.294254
0.652208,0.335693,-0.198364,0.026677,-0.050295,8.560997,4.275693
0.667774,0.396729,-0.198364,-0.003840,-0.030536,8.587342,4.283476
0.683416,0.297546,-0.236511,-0.034358,-0.028740,8.735834,4.276890
0.699004,0.480652,-0.022888,-0.026729,-0.052092,8.555609,4.309822
0.714685,0.244141,-0.244141,0.102971,-0.072449,8.716674,4.322396
0.730312,0.373840,-0.205994,0.133489,-0.079036,8.709489,4.302038
0.746156,0.381470,-0.183105,0.049565,-0.025746,8.468789,4.272100
0.761975,0.167847,-0.328064,-0.011470,-0.033530,8.600515,4.294853
0.777790,0.396729,-0.251770,-0.019099,-0.061672,8.574769,4.290662
0.793625,0.411987,-0.305176,0.003789,-0.067061,8.600515,4.294254
0.809481,0.373840,-0.404358,0.072454,-0.038919,8.606503,4.269106
0.825404,0.350952,-0.274658,0.041936,-0.033530,8.590336,4.276890
0.841208,0.450134,-0.312805,0.026677,-0.038320,8.568781,4.290063
0.857064,0.267029,-0.305176,-0.034358,-0.073647,8.576565,4.278687
0.872948,0.434875,-0.305176,-0.133540,-0.049697,8.443642,4.306828
0.888635,0.335693,-0.244141,0.072454,-0.079634,8.595725,4.288866
0.904277,0.366211,-0.122070,0.041936,-0.070054,8.734636,4.276291
0.919940,0.465393,-0.213623,-0.064875,-0.063468,8.455616,4.279884
0.935544,0.312805,-0.205994,-0.011470,-0.056882,8.465796,4.303236
0.951123,0.427246,-0.183105,-0.019099,-0.053289,8.562195,4.299044
0.966730,0.289917,-0.244141,0.011418,-0.059875,8.434061,4.300241
0.982349,0.312805,-0.328064,0.049565,-0.063468,8.560398,4.285872
0.997970,0.404358,-0.267029,-0.034358,-0.042512,8.563992,4.297248
1.013672,0.099182,-0.289917,-0.003840,-0.048499,8.574170,4.285872
1.029472,0.251770,-0.175476,-0.049617,-0.040715,8.580756,4.297248
1.045321,0.335693,-0.282288,0.011418,-0.068857,8.593330,4.286470
1.061039,0.343323,-0.350952,0.041936,-0.079036,8.578960,4.332574
1.076695,0.305176,-0.251770,0.011418,-0.062271,8.551417,4.264317
1.094360,0.465393,-0.190735,0.057195,-0.024549,8.569979,4.279884
1.109939,0.335693,-0.274658,-0.041987,-0.044308,8.581954,4.293655
1.125672,0.198364,-0.167847,-0.064875,-0.027543,8.590935,4.295452
1.141239,0.411987,-0.236511,0.003789,-0.035925,8.601712,4.309822
1.156963,0.427246,-0.251770,0.019048,-0.058678,8.602910,4.284075
1.172573,0.541687,-0.297546,-0.103022,-0.058678,8.591534,4.293655
1.188263,0.213623,-0.282288,0.011418,-0.076042,8.598719,4.291260
1.204421,0.350952,-0.236511,0.019048,-0.050295,8.583151,4.291859
1.220139,0.274658,-0.358582,0.034307,-0.031135,8.583151,4.302038
1.235825,0.099182,-0.335693,0.064824,-0.067061,8.617280,4.283476
1.251464,0.480652,-0.244141,0.049565,-0.054487,8.549621,4.300241
1.267124,0.267029,-0.236511,0.034307,-0.064666,8.552016,4.286470
1.282741,0.442505,-0.289917,-0.057246,-0.029339,8.569380,4.270304
1.298427,0.320435,-0.183105,-0.011470,-0.032333,8.546627,4.268507
1.314022,0.305176,-0.251770,0.026677,-0.076042,8.607101,4.300840
1.329974,0.312805,-0.274658,0.026677,-0.056283,8.605904,4.278088
1.345907,0.289917,-0.083923,-0.057246,-0.052092,8.583750,4.287069
1.361679,0.289917,-0.343323,0.095342,-0.028141,8.593330,4.318204
1.377435,0.175476,-0.297546,0.034307,-0.046703,8.718470,4.274495
1.393232,0.343323,-0.068665,0.064824,-0.047900,8.575367,4.282878
1.409037,0.312805,-0.373840,0.011418,-0.021555,8.587342,4.305032
1.424712,0.427246,-0.267029,0.141118,-0.034728,8.574170,4.302038
1.440359,0.473022,-0.251770,0.072454,-0.073048,8.570578,4.281680
1.456298,0.366211,-0.305176,0.072454,-0.037123,8.583750,4.284674
1.472134,0.434875,-0.144958,-0.026729,-0.040117,8.576565,4.281082
1.487979,0.503540,-0.259399,-0.011470,-0.065264,8.575966,4.270304
1.503601,0.404358,-0.267029,-0.011470,-0.080233,8.612491,4.284674
1.519243,0.465393,-0.297546,0.041936,-0.037123,8.575367,4.269705
1.534866,0.381470,-0.305176,-0.034358,-0.037123,8.587342,4.301439
1.550469,0.381470,-0.221252,0.057195,-0.059875,8.565188,4.293056
1.566050,0.267029,-0.213623,0.011418,-0.044907,8.576565,4.314013
1.586436,0.411987,-0.198364,0.041936,-0.056283,8.607101,4.290662
1.603546,0.244141,-0.228882,0.019048,-0.088616,8.597522,4.314612
1.619184,0.427246,-0.282288,0.057195,-0.023950,8.598120,4.252940
1.634812,0.289917,-0.282288,-0.148799,-0.038919,8.597522,4.261322
1.650580,0.404358,-0.305176,-0.003840,-0.059277,8.578960,4.281680
1.666303,0.297546,-0.175476,0.041936,-0.040715,8.590935,4.279884
1.681904,0.236511,-0.343323,0.034307,-0.053289,8.584948,4.325389
1.697593,0.411987,-0.221252,0.057195,-0.048499,8.574769,4.282279
1.713460,0.259399,-0.343323,0.034307,-0.033530,8.566985,4.290063
1.729156,0.350952,-0.267029,0.049565,-0.071851,8.586145,4.291859
1.744913,0.328064,-0.305176,0.026677,-0.049697,8.561596,4.277489
1.760686,0.373840,-0.305176,-0.011470,-0.050295,8.578362,4.299044
1.776540,0.358582,-0.251770,0.011418,-0.058079,8.586743,4.293655
1.792310,0.419617,-0.129700,0.049565,-0.046104,8.553213,4.299044
1.808087,0.320435,-0.328064,0.034307,-0.055684,8.563393,4.288267
1.823911,0.396729,-0.190735,0.057195,-0.047900,8.714877,4.277489
1.839560,0.411987,-0.373840,0.003789,-0.070653,8.571177,4.293056
1.856064,0.389099,-0.335693,-0.057246,-0.042512,8.585546,4.290063
1.871729,0.350952,-0.129700,0.087712,-0.053289,8.565188,4.269705
1.887458,0.320435,-0.259399,0.072454,-0.065863,8.573571,4.285273
1.903115,0.282288,-0.122070,0.003789,-0.058079,8.596923,4.280483
1.918674,0.411987,-0.320435,0.034307,-0.054487,8.585546,4.287668
1.934333,0.282288,-0.274658,-0.026729,-0.056882,8.601114,4.277489
1.949874,0.228882,-0.221252,-0.103022,-0.057480,8.575367,4.302637
1.965492,0.526428,-0.144958,-0.057246,-0.058678,8.581355,4.267310
1.981085,0.328064,-0.274658,0.080083,-0.043110,8.599916,4.273897
1.996790,0.343323,-0.213623,-0.003840,-0.056283,8.584349,4.285273
2.012534,0.442505,-0.244141,-0.057246,-0.071851,8.572373,4.302637
2.028242,0.198364,-0.221252,0.026677,-0.028141,8.595126,4.282279
2.043959,0.480652,-0.328064,0.019048,-0.038919,8.588540,4.272699
2.059713,0.312805,-0.289917,0.057195,-0.056882,8.609496,4.289464
2.075452,0.350952,-0.259399,0.041936,-0.061073,8.575966,4.276291
2.091106,0.396729,-0.297546,-0.049617,-0.049098,8.594527,4.280483
2.107547,0.251770,-0.282288,-0.034358,-0.058678,8.590935,4.295452
2.123274,0.190735,-0.190735,0.034307,-0.056882,8.596923,4.255934
2.138962,0.343323,-0.305176,0.057195,-0.054487,8.576565,4.285872
2.154717,0.190735,-0.198364,0.026677,-0.049098,8.577763,4.297847
2.170694,0.267029,-0.175476,0.049565,-0.017364,8.588540,4.281680
2.186369,0.419617,-0.274658,0.049565,-0.060474,8.565188,4.287069
2.202024,0.465393,-0.350952,0.041936,-0.054487,8.577763,4.300241
2.217590,0.389099,-0.358582,0.087712,-0.049697,8.586743,4.255335
2.233267,0.419617,-0.343323,0.049565,-0.042512,8.559800,4.285872
2.248978,0.511169,-0.114441,0.003789,-0.057480,8.577763,4.281082
2.264796,0.381470,-0.175476,0.003789,-0.059277,8.576565,4.397839
2.280561,0.312805,-0.144958,-0.041987,-0.057480,8.601114,4.284674
2.296325,0.495911,-0.335693,-0.003840,-0.053888,8.616681,4.293056
2.312046,0.350952,-0.190735,-0.011470,-0.035925,8.590336,4.296649
2.327776,0.488281,-0.251770,0.080083,-0.043709,8.558602,4.290063
2.343549,0.373840,-0.274658,-0.003840,-0.042512,8.707093,4.294853
2.359316,0.274658,-0.221252,0.057195,-0.037722,8.565188,4.295452
2.375051,0.167847,-0.396729,0.080083,-0.064666,8.577164,4.304433
2.390907,0.396729,-0.236511,-0.026729,-0.044907,8.566985,4.327785
2.406590,0.495911,-0.259399,0.003789,-0.046104,8.582553,4.284075
2.422209,0.427246,-0.236511,0.064824,-0.071252,8.565787,4.285872
2.437907,0.160217,-0.236511,0.049565,-0.047900,8.594527,4.265514
2.453535,0.389099,-0.244141,0.102971,-0.079634,8.571774,4.283476
2.469186,0.396729,-0.205994,0.049565,-0.059277,8.575367,4.279884
2.484729,0.541687,-0.228882,0.049565,-0.063468,8.593330,4.279884
2.500252,0.373840,-0.404358,0.072454,-0.049697,8.575966,4.303236
2.515962,0.495911,-0.282288,-0.019099,-0.056882,8.568182,4.277489
2.532260,0.305176,-0.328064,0.019048,-0.050894,8.597522,4.282878
2.548300,0.457764,-0.274658,0.041936,-0.043110,8.580756,4.283476
2.564169,0.350952,-0.267029,0.095342,-0.053888,8.593929,4.295452
2.579756,0.251770,-0.518799,0.080083,-0.048499,8.556806,4.297847
2.595675,0.244141,-0.350952,-0.003840,-0.043110,8.708291,4.264915
2.611839,0.320435,-0.221252,0.011418,-0.054487,8.595126,4.307427
2.627623,0.297546,-0.373840,-0.003840,-0.061672,8.559201,4.290063
2.643689,0.305176,-0.099182,0.003789,-0.061073,8.580157,4.279285
2.659560,0.442505,-0.251770,0.011418,-0.053888,8.595725,4.287668
2.675224,0.328064,-0.457764,0.057195,-0.040117,8.574769,4.287069
2.691017,0.404358,-0.320435,0.125859,-0.028141,8.617280,4.290063
2.706638,0.350952,-0.099182,0.034307,-0.049098,8.576565,4.313414
2.722319,0.350952,-0.160217,-0.003840,-0.037722,8.571177,4.286470
2.738043,0.373840,-0.373840,-0.011470,-0.085622,8.619676,4.281680
2.753784,0.282288,-0.259399,-0.041987,-0.059277,8.592731,4.258329
2.769367,0.366211,-0.167847,0.003789,-0.073048,8.604707,4.253539
2.784951,0.366211,-0.198364,0.080083,-0.058079,8.596324,4.284075
2.800525,0.396729,-0.091553,-0.087764,-0.033530,8.558003,4.267909
2.816142,0.267029,-0.190735,-0.019099,-0.065863,8.588540,4.296051
2.831833,0.221252,-0.305176,-0.003840,-0.056882,8.606503,4.294254
2.847518,0.366211,-0.251770,-0.034358,-0.044907,8.558003,4.270903
2.863232,0.305176,-0.213623,0.034307,-0.026944,8.586743,4.300241
2.878923,0.373840,-0.221252,-0.019099,-0.049098,8.434061,4.271502
2.894714,0.503540,-0.350952,-0.026729,-0.077838,8.730445,4.293655
2.910484,0.251770,-0.305176,0.019048,-0.022154,8.611293,4.305631
2.926272,0.518799,-0.183105,-0.034358,-0.048499,8.589738,4.277489
2.942036,0.198364,-0.152588,0.049565,-0.050894,8.571774,4.291859
2.958039,0.274658,-0.305176,-0.072505,-0.020956,8.589738,4.285872
2.973726,0.419617,-0.175476,-0.041987,-0.045505,8.560398,4.265514
2.989357,0.221252,-0.152588,-0.019099,-0.035327,8.574769,4.304433
3.005030,0.205994,-0.244141,-0.026729,-0.043709,8.592731,4.295452
3.020705,0.495911,-0.152588,-0.011470,-0.059875,8.587342,4.299643
3.036280,0.358582,-0.343323,0.019048,-0.048499,8.574170,4.293655
3.051885,0.419617,-0.244141,-0.087764,-0.048499,8.571177,4.275094
3.067448,0.396729,-0.190735,-0.019099,-0.038320,8.598120,4.282878
3.083055,0.373840,-0.267029,-0.041987,-0.065863,8.600515,4.297248
3.098631,0.366211,-0.274658,-0.011470,-0.017963,8.563393,4.276291
3.114548,0.312805,-0.366211,0.019048,-0.041314,8.617879,4.306229
3.130469,0.526428,-0.297546,-0.026729,-0.058678,8.583151,4.281082
3.146800,0.457764,-0.289917,-0.034358,-0.053888,8.436457,4.261921
3.162973,0.381470,-0.320435,0.087712,-0.038919,8.595725,4.290662
3.179003,0.305176,-0.366211,0.064824,-0.048499,8.571774,4.284674
3.194683,0.396729,-0.175476,-0.049617,-0.047302,8.592731,4.311618
3.210355,0.305176,-0.419617,0.072454,-0.065863,8.594527,4.276890
3.225950,0.328064,-0.267029,0.080083,-0.049098,8.564590,4.281680
3.241933,0.274658,-0.251770,0.011418,-0.033530,8.586145,4.308624
3.257678,0.213623,-0.144958,-0.003840,-0.042512,8.587342,4.309822
3.273528,0.305176,-0.244141,-0.095393,-0.041314,8.579558,4.252940
3.289198,0.328064,-0.213623,-0.003840,-0.052092,8.595126,4.288267
3.304913,0.343323,-0.488281,-0.019099,-0.060474,8.569380,4.300840
3.320511,0.526428,-0.305176,0.049565,-0.079634,8.575367,4.285872
3.336123,0.076294,-0.267029,0.041936,-0.040117,8.595126,4.309223
3.351811,0.350952,-0.343323,-0.034358,-0.075443,8.592133,4.281082
3.367426,0.366211,-0.251770,-0.072505,-0.070054,8.607700,4.296051
3.383065,0.259399,-0.244141,0.034307,-0.040715,8.596324,4.286470
3.398821,0.404358,-0.205994,0.003789,-0.083227,8.586743,4.261322
3.414711,0.366211,-0.106812,-0.049617,-0.044308,8.604108,4.289464
3.430557,0.335693,-0.350952,-0.034358,-0.060474,8.598120,4.312217
3.446468,0.373840,-0.259399,0.011418,-0.059277,8.587941,4.292458
3.462325,0.205994,-0.320435,-0.080134,0.137714,8.622070,4.258928
3.478228,0.381470,-0.259399,0.041936,-0.092208,8.540640,4.301439
3.494080,0.350952,-0.289917,-0.064875,-0.074844,8.567584,4.296051
3.509888,0.328064,-0.267029,-0.026729,-0.001198,8.611293,4.289464
3.525794,0.297546,-0.205994,-0.034358,-0.063468,8.558602,4.294254
3.541682,0.411987,-0.198364,0.049565,-0.038919,8.575966,4.306828
3.557246,0.251770,-0.190735,-0.011470,-0.025746,8.724458,4.287069
3.572936,0.450134,-0.289917,0.011418,-0.034728,8.570578,4.280483
3.588567,0.373840,-0.312805,0.102971,-0.028740,8.586743,4.281680
3.604202,0.457764,-0.251770,-0.011470,-0.077838,8.700507,4.286470
3.620194,0.389099,-0.259399,0.034307,-0.030536,8.563393,4.273897
3.635780,0.213623,-0.328064,0.003789,-0.037123,8.620274,4.287668
3.651387,0.274658,-0.267029,-0.026729,-0.069456,8.586145,4.300840
3.666976,0.404358,-0.221252,0.003789,-0.076641,8.731643,4.264915
3.682711,0.274658,-0.213623,0.041936,-0.053888,8.600515,4.295452
3.698498,0.244141,-0.267029,0.057195,-0.032932,8.581954,4.270903
3.714345,0.160217,-0.236511,-0.057246,-0.010179,8.586743,4.284674
3.730173,0.205994,-0.389099,-0.003840,-0.034728,8.607101,4.291859
3.746231,0.442505,-0.282288,-0.019099,-0.038919,8.559800,4.299643
3.762282,0.434875,-0.350952,-0.049617,-0.030536,8.608898,4.288866
3.778378,0.320435,-0.274658,0.003789,-0.056283,8.587941,4.315809
3.794187,0.251770,-0.320435,-0.049617,-0.047302,8.569979,4.298445
3.809859,0.335693,-0.305176,-0.064875,-0.062869,8.582553,4.301439
3.825478,0.305176,-0.236511,0.019048,-0.046703,8.614286,4.283476
3.841089,0.366211,-0.305176,0.080083,-0.029339,8.567584,4.272699
3.856687,0.320435,-0.335693,-0.049617,-0.034129,8.433462,4.285872
3.872294,0.480652,-0.373840,0.041936,-0.016765,8.529862,4.285273
3.887964,0.244141,-0.160217,0.049565,-0.029339,8.560398,4.299044
3.903626,0.373840,-0.320435,-0.011470,-0.017963,8.609496,4.291859
3.919230,0.289917,-0.442505,0.064824,-0.067659,8.595126,4.284674
3.934833,0.465393,-0.267029,0.026677,-0.066462,8.599318,4.300840
3.950442,0.450134,-0.289917,0.087712,-0.028740,8.590336,4.259526
3.966111,0.343323,-0.244141,-0.041987,-0.031135,8.584349,4.278687
3.981847,0.305176,-0.236511,-0.072505,-0.046104,8.611892,4.276890
3.997635,0.381470,-0.251770,0.049565,-0.047302,8.551417,4.302637
4.013391,0.373840,-0.274658,0.057195,-0.061073,8.576565,4.282279
4.029217,0.328064,-0.373840,0.041936,-0.034728,8.599318,4.264317
4.045160,0.335693,-0.259399,0.064824,-0.041314,8.560997,4.301439
4.061047,0.205994,-0.366211,0.072454,-0.067659,8.576565,4.302637
4.076808,0.244141,-0.274658,0.026677,-0.041913,8.582553,4.266711
4.092708,0.282288,-0.152588,0.026677,-0.054487,8.596923,4.305631
4.108335,0.541687,-0.183105,0.026677,-0.048499,8.597522,4.268507
4.124939,0.312805,-0.251770,-0.026729,-0.047302,8.449030,4.284674
4.140749,0.274658,-0.160217,0.019048,-0.037722,8.567584,4.281082
4.156421,0.228882,-0.282288,-0.034358,-0.037722,8.584948,4.288267
4.172097,0.228882,-0.389099,0.011418,-0.070054,8.595725,4.283476
4.187671,0.389099,-0.175476,0.041936,-0.069456,8.593330,4.302637
4.203287,0.305176,-0.297546,-0.041987,-0.062869,8.567584,4.267310
4.218870,0.198364,-0.183105,0.080083,-0.050894,8.572373,4.271502
4.234462,0.282288,-0.228882,-0.057246,-0.046104,8.578960,4.278687
4.250108,0.190735,-0.282288,0.125859,-0.038320,8.575367,4.282279
4.265999,0.404358,-0.198364,-0.003840,-0.055684,8.581954,4.299044
4.281882,0.411987,-0.289917,-0.049617,-0.045505,8.569380,4.288267
4.297707,0.427246,-0.335693,0.026677,-0.058678,8.571177,4.307427
4.313511,0.335693,-0.396729,0.003789,-0.054487,8.592133,4.269106
4.329362,0.205994,-0.259399,0.019048,-0.037722,8.440049,4.273298
4.345337,0.404358,-0.228882,-0.026729,-0.063468,8.593929,4.286470
4.361280,0.396729,-0.396729,0.019048,-0.057480,8.584349,4.279884
4.377339,0.427246,-0.358582,0.110601,-0.061073,8.560997,4.287069
4.393094,0.358582,-0.190735,0.049565,-0.040715,8.579558,4.276890
4.408948,0.328064,-0.366211,0.049565,-0.016765,8.574769,4.290662
4.424577,0.289917,-0.251770,0.049565,-0.024549,8.575367,4.296649
4.440251,0.419617,-0.228882,0.034307,-0.073647,8.595126,4.289464
4.455875,0.434875,-0.373840,-0.034358,-0.050894,8.575367,4.248150
4.471452,0.373840,-0.213623,-0.072505,-0.053289,8.586145,4.285872
4.487032,0.289917,-0.167847,0.019048,-0.067061,8.605305,4.288267
4.502653,0.389099,-0.320435,-0.034358,-0.045505,8.587941,4.276291
4.518230,0.328064,-0.267029,0.095342,-0.044308,8.587342,4.297248
4.533970,0.228882,-0.198364,0.148748,-0.035925,8.587342,4.267909
4.549676,0.389099,-0.297546,0.026677,-0.044907,8.565787,4.254736
4.565473,0.328064,-0.373840,0.034307,-0.059875,8.605904,4.291260
4.581228,0.373840,-0.221252,-0.003840,-0.049697,8.606503,4.273897
4.597005,0.297546,-0.289917,-0.011470,-0.065264,8.606503,4.264915
4.612858,0.297546,-0.305176,0.041936,-0.048499,8.437654,4.302038
4.629301,0.343323,-0.373840,-0.019099,-0.041314,8.586145,4.280483
4.645246,0.373840,-0.343323,0.064824,-0.056882,8.586145,4.313414
4.661193,0.328064,-0.251770,-0.049617,-0.047900,8.595126,4.281082
4.676937,0.373840,-0.343323,-0.026729,-0.037123,8.589139,4.283476
4.692658,0.267029,-0.236511,-0.064875,-0.064666,8.611293,4.285872
4.708416,0.373840,-0.236511,0.095342,-0.061672,8.583151,4.292458
4.724084,0.289917,-0.289917,-0.019099,-0.058678,8.583151,4.277489
4.739859,0.411987,-0.358582,0.034307,-0.064666,8.732840,4.314612
4.755550,0.236511,-0.259399,-0.003840,-0.055085,8.587342,4.275693
4.771583,0.335693,-0.244141,0.041936,-0.075443,8.578362,4.293056
4.787147,0.236511,-0.289917,0.026677,-0.034129,8.576565,4.284674
4.802690,0.297546,-0.373840,0.011418,-0.060474,8.723260,4.289464
4.818556,0.457764,-0.190735,0.102971,-0.082628,8.591534,4.317007
4.834361,0.320435,-0.267029,0.019048,-0.027543,8.584948,4.282878
4.850233,0.457764,-0.190735,0.148748,-0.077838,8.619676,4.260724
4.865802,0.343323,-0.320435,0.041936,-0.059875,8.596324,4.282279
4.881692,0.503540,-0.167847,0.019048,-0.039518,8.552615,4.297248
4.897595,0.297546,-0.274658,0.072454,-0.047900,8.612491,4.298445
4.913449,0.404358,-0.251770,-0.087764,-0.036524,8.596923,4.283476
4.929349,0.389099,-0.221252,0.003789,-0.036524,8.570578,4.272699
4.945269,0.366211,-0.366211,-0.041987,-0.044907,8.440049,4.292458
4.961100,0.350952,-0.221252,-0.003840,-0.030536,8.440647,4.314612
4.976804,0.427246,-0.297546,0.003789,-0.073647,8.578960,4.284075
4.992438,0.396729,-0.267029,0.102971,-0.053888,8.452024,4.298445
5.008057,0.167847,-0.297546,0.087712,-0.050295,8.719667,4.286470
5.023666,0.221252,-0.267029,0.087712,-0.045505,8.431666,4.288866
5.039330,0.244141,-0.297546,-0.080134,-0.055684,8.605904,4.314612
5.054865,0.511169,-0.228882,0.049565,-0.050894,8.704100,4.302038
5.070448,0.503540,-0.213623,0.095342,-0.034129,8.716075,4.285273
5.086007,0.312805,-0.289917,0.019048,-0.070653,8.715476,4.281082
5.101548,0.411987,-0.297546,0.003789,-0.042512,8.552016,4.291859
5.117190,0.457764,-0.404358,0.011418,-0.032333,8.587941,4.260125
5.133610,0.389099,-0.213623,-0.087764,-0.054487,8.588540,4.310421
5.149339,0.480652,-0.267029,0.003789,-0.052092,8.564590,4.275094
5.165183,0.350952,-0.267029,-0.003840,-0.065264,8.585546,4.293655
5.181004,0.267029,-0.419617,-0.057246,-0.049697,8.565787,4.302038
5.196929,0.404358,-0.167847,0.019048,-0.033530,8.581954,4.270304
5.212818,0.205994,-0.343323,-0.003840,-0.031135,8.608898,4.293056
5.228682,0.297546,-0.129700,-0.041987,-0.042512,8.574170,4.314013
5.244532,0.442505,-0.244141,-0.011470,-0.050295,8.435259,4.303834
5.260296,0.373840,-0.205994,0.080083,-0.074246,8.595725,4.298445
5.275957,0.350952,-0.205994,0.080083,-0.062271,8.561596,4.257730
5.291586,0.312805,-0.335693,-0.011470,-0.044907,8.585546,4.266711
5.307243,0.274658,-0.396729,0.057195,-0.068258,8.583750,4.281082
5.323003,0.305176,-0.213623,0.049565,-0.017364,8.577164,4.266113
5.338602,0.457764,-0.350952,0.019048,-0.038919,8.599916,4.269705
5.354251,0.434875,-0.122070,0.041936,-0.050894,8.573571,4.283476
5.369840,0.396729,-0.274658,0.041936,-0.062271,8.559800,4.279884
5.385529,0.228882,-0.221252,0.041936,-0.058678,8.606503,4.290662
5.401417,0.289917,-0.328064,-0.011470,-0.081431,8.585546,4.275094
5.417407,0.259399,-0.350952,-0.057246,-0.035327,8.607101,4.277489
5.433486,0.373840,-0.411987,0.072454,-0.060474,8.613688,4.298445
5.449378,0.450134,-0.282288,-0.049617,-0.051493,8.568182,4.296649
5.465223,0.343323,-0.205994,0.011418,-0.043110,8.451426,4.260724
5.481030,0.274658,-0.381470,0.026677,-0.051493,8.574769,4.289464
5.496895,0.450134,-0.198364,0.049565,-0.061672,8.569380,4.303236
5.512792,0.297546,-0.152588,0.003789,-0.061073,8.596324,4.281680
5.528654,0.366211,-0.228882,0.087712,-0.060474,8.586145,4.309223
5.544676,0.366211,-0.228882,0.026677,-0.061073,8.559201,4.281082
5.560654,0.244141,-0.328064,0.049565,-0.067061,8.582553,4.303236
5.576497,0.305176,-0.221252,0.049565,-0.039518,8.592133,4.289464
5.592207,0.404358,-0.244141,0.003789,-0.027543,8.563393,4.271502
5.607830,0.442505,-0.244141,0.011418,-0.041314,8.568781,4.286470
5.623447,0.404358,-0.381470,0.011418,-0.038919,8.583151,4.285273
5.639093,0.442505,-0.251770,0.118230,-0.051493,8.574170,4.287069
5.654708,0.259399,-0.282288,0.019048,-0.038919,8.719069,4.307427
5.670275,0.366211,-0.198364,0.064824,-0.058678,8.574170,4.310421
5.685919,0.267029,-0.282288,0.011418,-0.044907,8.571774,4.299643
5.701504,0.335693,-0.228882,0.087712,-0.043110,8.596923,4.284674
5.717186,0.427246,-0.183105,-0.095393,-0.056882,8.730445,4.290063
5.733017,0.373840,-0.328064,0.011418,-0.042512,8.597522,4.288866
5.748818,0.373840,-0.366211,-0.011470,-0.035327,8.573571,4.306828
5.764624,0.297546,-0.358582,-0.003840,-0.072449,8.588540,4.299044
5.780453,0.450134,-0.297546,-0.011470,-0.070054,8.580157,4.285872
5.796270,0.404358,-0.312805,0.026677,-0.052690,8.572373,4.309822
5.812080,0.389099,-0.099182,0.072454,-0.053289,8.587941,4.290662
5.827782,0.419617,-0.228882,0.011418,-0.047302,8.563992,4.300241
5.843544,0.358582,-0.221252,0.064824,-0.035925,8.571177,4.283476
5.859259,0.343323,-0.312805,0.072454,-0.063468,8.590336,4.277489
5.874881,0.411987,-0.373840,-0.049617,-0.023351,8.588540,4.293056
5.890561,0.389099,-0.358582,0.026677,-0.062271,8.533455,4.293655
5.906200,0.213623,-0.312805,-0.103022,-0.064666,8.559201,4.299044
5.921837,0.259399,-0.328064,0.019048,-0.061073,8.565787,4.287069
5.937413,0.236511,-0.289917,0.041936,-0.068258,8.580157,4.284674
5.953041,0.320435,-0.244141,0.080083,-0.039518,8.611293,4.288866
5.968681,0.167847,-0.305176,0.102971,-0.037722,8.572972,4.293655
5.984572,0.305176,-0.282288,0.011418,-0.051493,8.592731,4.291260
6.000536,0.381470,-0.221252,-0.041987,-0.059277,8.593330,4.308025
6.016483,0.373840,-0.106812,-0.103022,-0.027543,8.438851,4.275094
6.032484,0.305176,-0.259399,-0.064875,-0.081431,8.600515,4.284674
6.048337,0.358582,-0.289917,0.057195,-0.071252,8.590935,4.289464
6.064319,0.251770,-0.320435,-0.049617,-0.026944,8.610095,4.290063
6.080233,0.244141,-0.267029,-0.003840,-0.026944,8.592731,4.287668
6.096084,0.373840,-0.381470,-0.011470,-0.058678,8.589738,4.285273
6.112043,0.236511,-0.373840,-0.003840,-0.057480,8.596324,4.290662
6.128056,0.312805,-0.297546,0.049565,-0.070653,8.586743,4.283476
6.144938,0.305176,-0.274658,0.049565,-0.010179,8.588540,4.290063
6.160593,0.274658,-0.343323,0.019048,-0.046104,8.589738,4.276890
6.176414,0.267029,-0.244141,-0.080134,-0.064067,8.592731,4.290063
6.192015,0.366211,-0.328064,0.019048,-0.044308,8.577164,4.307427
6.207714,0.297546,-0.305176,-0.019099,-0.043709,8.577763,4.278088
6.223354,0.328064,-0.205994,0.041936,-0.044308,8.594527,4.287069
6.238952,0.427246,-0.305176,0.064824,-0.065264,8.608898,4.296649
6.254521,0.251770,-0.381470,0.026677,-0.044308,8.595725,4.270903
6.270093,0.343323,-0.228882,0.003789,-0.047900,8.589738,4.280483
6.285734,0.267029,-0.457764,-0.003840,-0.053888,8.574769,4.294254
6.301325,0.152588,-0.129700,0.003789,-0.059875,8.583151,4.281082
6.317151,0.381470,-0.419617,-0.011470,-0.050295,8.580157,4.293655
6.332998,0.389099,-0.160217,0.072454,-0.079036,8.602311,4.282279
6.348848,0.404358,-0.228882,0.011418,-0.041314,8.438252,4.297248
6.364644,0.396729,-0.274658,-0.011470,-0.059875,8.444839,4.293056
6.380470,0.343323,-0.312805,0.026677,-0.044308,8.593929,4.295452
6.396374,0.373840,-0.335693,0.118230,-0.053289,8.576565,4.287069
6.412212,0.381470,-0.144958,0.003789,-0.070054,8.584948,4.279884
6.427880,0.442505,-0.297546,0.011418,-0.013771,8.583151,4.279285
6.443473,0.350952,-0.267029,0.026677,-0.049697,8.580157,4.271502
6.459097,0.389099,-0.305176,0.011418,-0.061073,8.575966,4.298445
6.474754,0.221252,-0.274658,0.095342,-0.056283,8.581355,4.277489
6.490470,0.244141,-0.244141,0.072454,-0.067659,8.607700,4.266113
6.506021,0.297546,-0.320435,0.057195,-0.050894,8.599916,4.279884
6.521648,0.259399,-0.335693,0.026677,-0.019160,8.577763,4.278088
6.537191,0.350952,-0.099182,-0.011470,-0.058678,8.578960,4.280483
6.552740,0.312805,-0.434875,0.133489,-0.036524,8.586145,4.283476
6.568502,0.305176,-0.152588,0.080083,-0.043110,8.543633,4.297248
6.584399,0.404358,-0.396729,0.095342,-0.068857,8.553812,4.302637
6.600383,0.335693,-0.381470,-0.011470,-0.058079,8.570578,4.282279
6.616444,0.320435,-0.297546,-0.011470,-0.078437,8.718470,4.293056
6.632406,0.297546,-0.366211,0.110601,-0.032333,8.443043,4.282279
6.648466,0.427246,-0.373840,0.072454,-0.050295,8.577763,4.282878
6.664452,0.373840,-0.183105,0.095342,-0.049098,8.604707,4.300241
6.680373,0.297546,-0.312805,0.034307,-0.045505,8.578960,4.266711
6.696309,0.328064,-0.228882,-0.019099,-0.022753,8.565787,4.273897
6.712153,0.312805,-0.350952,0.011418,-0.062869,8.593929,4.270903
6.728110,0.282288,-0.167847,-0.049617,-0.024549,8.566985,4.301439
6.744003,0.350952,-0.198364,0.049565,-0.068258,8.444839,4.297847
6.759731,0.366211,-0.289917,0.041936,-0.045505,8.579558,4.282279
6.775428,0.450134,-0.343323,0.041936,-0.053888,8.587342,4.304433
6.791185,0.366211,-0.373840,0.003789,-0.059277,8.606503,4.263119
6.806858,0.289917,-0.381470,-0.080134,-0.017963,8.587342,4.278687
6.822468,0.297546,-0.274658,0.072454,-0.068857,8.550818,4.289464
6.838033,0.343323,-0.274658,0.087712,-0.053289,8.589139,4.303834
6.853640,0.282288,-0.305176,-0.057246,-0.035327,8.587342,4.287069
6.869224,0.503540,-0.289917,-0.011470,-0.079036,8.567584,4.314612
6.884893,0.160217,-0.343323,0.011418,-0.052690,8.590935,4.294853
6.900683,0.205994,-0.152588,-0.019099,-0.046104,8.573571,4.293056
6.916510,0.297546,-0.312805,0.026677,-0.058079,8.589738,4.279884
6.932318,0.320435,-0.289917,-0.034358,-0.053888,8.595725,4.306229
6.948228,0.457764,-0.236511,0.041936,-0.054487,8.577763,4.285273
6.964060,0.328064,-0.312805,-0.064875,-0.058678,8.607700,4.278687
6.979890,0.473022,-0.350952,-0.049617,-0.049098,8.566985,4.255335
6.995686,0.411987,-0.167847,0.057195,-0.062869,8.551417,4.273897
7.011550,0.205994,-0.274658,0.026677,-0.051493,8.583750,4.281082
7.027567,0.450134,-0.228882,0.026677,-0.026345,8.430469,4.283476
7.043934,0.328064,-0.373840,-0.026729,-0.021555,8.586145,4.281082
7.059634,0.343323,-0.251770,0.080083,-0.068258,8.596923,4.319402
7.075533,0.335693,-0.251770,0.102971,-0.045505,8.569979,4.295452
7.091205,0.396729,-0.167847,-0.041987,-0.045505,8.589139,4.287668
7.106880,0.389099,-0.221252,0.019048,-0.065863,8.572373,4.298445
7.122627,0.373840,-0.228882,-0.041987,-0.045505,8.553213,4.300241
7.138479,0.328064,-0.328064,-0.003840,-0.049098,8.586145,4.305631
7.154145,0.350952,-0.343323,0.026677,-0.063468,8.563992,4.299643
7.169704,0.251770,-0.274658,-0.064875,-0.052092,8.563393,4.292458
7.185367,0.343323,-0.274658,-0.003840,-0.082029,8.568182,4.291859
7.201089,0.228882,-0.236511,-0.057246,-0.051493,8.722661,4.290063
7.216859,0.358582,-0.297546,0.003789,-0.046703,8.728649,4.275693
7.232645,0.450134,-0.289917,0.087712,-0.074246,8.590336,4.276890
7.248447,0.396729,-0.274658,-0.019099,-0.022154,8.595126,4.270903
7.264336,0.465393,-0.381470,-0.011470,-0.071252,8.587941,4.297847
7.280265,0.343323,-0.282288,0.003789,-0.043110,8.578960,4.285273
7.296070,0.350952,-0.297546,-0.026729,-0.013173,8.578960,4.301439
7.311953,0.320435,-0.320435,-0.003840,-0.031135,8.586743,4.281680
7.327777,0.389099,-0.289917,-0.041987,-0.066462,8.562794,4.307427
7.343533,0.396729,-0.366211,0.041936,-0.044907,8.555010,4.299044
7.359194,0.312805,-0.381470,-0.003840,-0.047302,8.574170,4.293655
7.374927,0.183105,-0.251770,-0.072505,-0.049697,8.577164,4.286470
7.390586,0.572205,-0.228882,-0.019099,-0.050894,8.555010,4.290662
7.406263,0.236511,-0.267029,0.026677,-0.062869,8.572373,4.302038
7.421846,0.381470,-0.320435,0.019048,-0.053888,8.575367,4.265514
7.437365,0.320435,-0.267029,-0.087764,-0.068258,8.599318,4.291859
7.452965,0.289917,-0.358582,0.041936,-0.046104,8.593929,4.284075
7.469247,0.320435,-0.190735,0.034307,-0.029938,8.579558,4.279285
7.485029,0.343323,-0.175476,-0.003840,-0.045505,8.580157,4.279285
7.500747,0.289917,-0.190735,-0.041987,-0.039518,8.592133,4.280483
7.516354,0.358582,-0.221252,0.003789,-0.038919,8.567584,4.269106
7.532180,0.366211,-0.251770,-0.011470,-0.043709,8.587342,4.284674
7.548141,0.373840,-0.343323,-0.003840,-0.034728,8.581954,4.297248
7.564026,0.175476,-0.289917,0.019048,-0.064067,8.574769,4.264317
7.579807,0.297546,-0.328064,0.102971,-0.063468,8.604108,4.309223
7.595580,0.404358,-0.198364,0.026677,-0.032932,8.581355,4.282279
7.611470,0.404358,-0.335693,-0.034358,-0.039518,8.582553,4.308624
7.627178,0.389099,-0.312805,-0.003840,-0.037722,8.584349,4.309822
7.642798,0.282288,-0.282288,0.041936,-0.061672,8.574769,4.285872
7.658556,0.358582,-0.282288,0.087712,-0.035925,8.606503,4.297248
7.674227,0.541687,-0.373840,0.156377,-0.041913,8.727451,4.296649
7.689930,0.366211,-0.129700,-0.011470,-0.052690,8.706494,4.276291
7.706220,0.320435,-0.297546,-0.034358,-0.058678,8.585546,4.285872
7.722248,0.381470,-0.221252,-0.087764,-0.027543,8.594527,4.270304
7.737987,0.312805,-0.259399,0.049565,-0.045505,8.601712,4.278687
7.753755,0.076294,-0.366211,-0.019099,-0.069456,8.600515,4.312217
7.769354,0.381470,-0.183105,0.011418,-0.039518,8.584349,4.284075
7.785309,0.274658,-0.373840,-0.003840,-0.037722,8.590935,4.275693
7.800985,0.389099,-0.381470,-0.064875,-0.009580,8.583750,4.265514
7.816772,0.404358,-0.267029,-0.041987,-0.016166,8.582553,4.297248
7.832663,0.335693,-0.297546,0.072454,-0.060474,8.702304,4.305631
7.848448,0.427246,-0.434875,0.034307,-0.039518,8.732242,4.294853
7.864317,0.236511,-0.213623,0.133489,-0.082628,8.587941,4.291859
7.880144,0.312805,-0.320435,-0.011470,-0.040715,8.596324,4.264915
7.896116,0.427246,-0.282288,0.110601,-0.023351,8.566985,4.291859
7.912168,0.457764,-0.343323,-0.041987,-0.085023,8.597522,4.283476
7.927906,0.274658,-0.312805,-0.041987,-0.036524,8.610694,4.279884
7.943633,0.411987,-0.312805,0.011418,-0.090412,8.587342,4.266711
7.959344,0.473022,-0.190735,0.041936,-0.023351,8.571774,3.649994
7.975898,-24.574280,7.194519,-4.238154,0.683778,7.098239,4.558904
7.991793,5.088806,-11.642456,-0.270869,-0.817300,6.807843,8.080181
8.008007,37.811279,-0.793457,-3.025081,-0.323328,8.777746,5.989928
8.023685,47.782898,1.480103,-4.253413,0.884960,7.277865,4.270304
8.039372,32.287598,-2.052307,-1.880671,-1.583108,7.698790,6.200091
8.055350,43.304443,-5.035400,1.964543,-1.264570,9.155560,3.809263
8.071363,50.666809,-3.868103,4.009221,0.408950,9.013656,7.231147
8.086937,71.914673,-0.984192,0.995610,0.429906,9.149573,4.894805
8.102561,77.049255,-0.572205,2.727483,-0.219144,8.587342,4.598422
8.118450,82.443237,1.701355,2.284978,0.601749,8.677754,5.600737
8.134148,91.194153,1.121521,2.826665,0.731678,8.687335,4.719969
8.149941,90.774536,0.381470,1.903508,0.586780,9.231603,0.465217
8.166019,83.114624,-2.723694,1.743291,-0.480201,7.767048,4.534355
8.181966,82.649231,-12.390137,-3.109004,-0.298180,9.906999,-0.436508
8.197922,46.928406,3.761292,-2.231624,0.064666,8.146659,-2.824343
8.214241,0.175476,3.036499,9.906743,0.059875,11.003918,-1.993271
8.230448,22.827148,-9.269714,-3.345515,-0.214354,10.511142,2.769225
8.246089,48.385620,4.051208,1.087163,-0.687969,9.515412,0.567005
8.261809,53.375244,0.503540,1.903508,0.907712,10.200388,3.685320
8.278324,58.250427,-0.976562,-3.307368,0.527503,11.220667,5.660014
8.294115,92.208862,-9.239197,-5.817439,-0.553250,6.307883,3.869138
8.309852,115.806580,-0.656128,-4.688289,-0.687969,8.617280,2.997351
8.325846,114.929199,1.007080,-5.634334,1.464554,7.554491,2.098021
8.341788,106.040955,-6.874084,-1.522090,-0.884361,7.747290,1.407058
8.357803,106.033325,-4.440308,-3.543880,-0.660427,7.584428,1.353769
8.373436,116.615295,-3.791809,0.896428,0.585582,7.407795,-0.083842
8.389120,122.848511,3.410339,-3.032710,-0.079634,10.117760,0.396959
8.404706,127.883911,-0.427246,0.247930,-0.473016,8.478968,1.154982
8.420298,150.604248,1.579285,-0.240352,-0.841849,8.958570,-0.602363
8.435903,171.463013,-1.625061,1.140569,-0.537682,7.089258,0.338879
8.451731,175.140381,9.925842,0.164006,-0.329914,5.633086,-1.230457
8.467610,73.463440,-140.419006,-14.019038,-16.119678,1.642983,19.285879
8.483388,28.015137,18.295288,28.942083,-4.557722,7.229965,-3.723074
8.499246,-29.747009,41.854858,27.866339,1.155597,-0.291594,-11.890090
8.515159,-50.979614,16.662598,19.184088,-7.865843,6.277346,-17.929731
8.531015,-11.543274,12.046814,3.520940,-1.954336,5.110373,-0.966406
8.546782,-20.050049,-30.822754,-6.183650,-1.253793,9.156758,-6.316880
8.562680,-5.310059,0.915527,-1.384761,3.554209,7.088060,-4.001495
8.578589,-4.203796,0.061035,-2.864863,1.287922,7.978409,-5.613343
8.594232,2.578735,-1.274109,1.781438,-3.036286,9.063353,-5.603164
8.609879,-6.042480,-0.221252,-0.263240,-0.881966,9.365125,-3.432079
8.625636,1.152039,0.061035,0.667546,0.495769,9.328601,-2.365098
8.641385,4.684448,-0.717163,-1.697566,0.096998,8.915461,-3.790134
8.656999,1.037598,-1.708984,0.171636,-0.676593,9.668694,-3.319513
8.672631,-1.167297,-0.068665,-0.125911,0.144300,8.702304,-2.583643
8.688226,2.731323,-1.960754,1.026128,-0.207768,9.233997,-3.504528
8.703790,0.389099,-0.816345,0.598882,-0.255668,8.952583,-3.062048
8.719472,-1.342773,-0.221252,0.156377,0.039518,8.953780,-2.527959
8.735333,1.426697,-0.526428,-0.629451,-0.059277,9.200467,-3.330889
8.751183,1.258850,-1.144409,-0.133540,-0.323328,8.926837,-3.156651
8.766940,-0.846863,-0.465393,0.286077,-0.043110,9.096883,-2.929724
8.782819,0.610352,-0.907898,0.316594,-0.207169,9.092691,-3.193176
8.798719,0.495911,-0.396729,-0.270869,-0.137714,8.904682,-3.330291
8.814677,-0.259399,0.114441,-0.057246,0.073048,9.151370,-3.050073
8.830680,0.679016,-0.419617,0.179265,-0.043110,9.002878,-3.139886
8.846616,0.617981,-0.213623,0.041936,-0.028740,9.023236,-3.335679
8.862462,-0.129700,-0.373840,0.141118,-0.037722,9.142987,-2.984210
8.878459,0.663757,-0.297546,-0.293757,-0.170046,9.013656,-3.251854
8.894233,0.534058,-0.328064,0.057195,-0.022154,9.054371,-3.150065
8.910174,0.244141,-0.289917,0.217412,0.041314,9.054371,-3.115338
8.927314,6.370544,-0.579834,1.064275,-0.386796,8.790320,-1.634018
8.943288,-4.135132,3.898621,0.102971,0.638273,12.132570,-3.632063
8.958932,-48.950195,7.179260,-3.032710,-0.452659,11.302696,-3.438665
8.974531,-79.429626,12.657166,-1.560237,-0.330513,8.981323,-3.080011
8.990392,-69.030762,7.514954,-8.060481,-0.025148,8.853788,-3.217725
9.006204,-67.245483,-0.732422,-8.449580,1.324446,9.655521,-1.767540
9.021868,-85.472107,2.830505,-8.541133,0.098795,9.410031,-0.243110
9.037480,-100.074768,7.934570,-2.277400,-0.863405,8.891510,-0.343701
9.053170,-97.648621,5.119324,-0.110652,-1.091530,8.993897,-0.261073
9.068905,-103.118896,2.769470,-0.232722,0.152084,9.111253,-1.092744
9.084671,-115.715027,7.354736,5.138371,-0.193398,8.622669,0.201166
9.100436,-122.650146,8.354187,2.513860,-0.077239,9.307046,-0.085638
9.116229,-133.102417,11.047363,0.621770,-0.301174,8.993897,0.071236
9.132030,-150.543213,15.174866,1.773809,-0.006586,8.658594,1.957913
9.147900,-162.025452,18.409729,3.192876,-0.233514,8.038284,1.817205
9.164250,-177.894592,18.432617,2.948735,-0.670605,8.716674,1.099897
9.181242,-190.475464,20.294189,5.283330,0.010179,6.594687,0.859796
9.197045,-176.902771,23.780823,6.549809,0.564626,8.392747,0.970566
9.213064,-149.002075,15.518188,-11.188533,-0.076042,12.158916,0.917875
9.228777,-115.829468,10.917664,-7.724788,0.058678,9.789043,0.122729
9.244606,-97.839355,9.086609,3.086064,-0.262255,7.608977,2.563853
9.260497,-67.367554,11.428833,4.947637,-0.416135,8.363408,0.849019
9.276364,-54.382324,1.472473,8.266423,-1.321452,7.043154,5.291780
9.291945,-57.960510,1.403809,5.580876,0.068857,8.251441,6.077945
9.307596,-43.128967,1.007080,3.719304,0.277223,8.696316,5.795931
9.323133,-33.210754,2.723694,3.452275,-0.086819,8.767568,5.421710
9.338711,-25.695801,2.090454,0.591252,0.616119,8.471184,5.477993
9.354299,-20.332336,-0.831604,-2.735164,-0.125140,8.573571,4.446937
9.369994,-21.644592,-1.243591,-3.971126,0.102986,8.214917,4.918756
9.385870,-20.576477,-1.853943,-5.611445,0.071252,7.976014,5.019346
9.401705,-21.934509,-3.639221,-5.443599,-0.523312,7.932903,5.360637
9.417481,-18.608093,-1.182556,-3.261592,-0.546663,7.952662,5.573793
9.433502,-13.671875,0.335693,-1.354243,-0.457449,8.024513,5.677378
9.449385,-8.506775,0.160217,0.789617,-0.512534,8.275392,5.626484
9.465284,-1.701355,1.113892,2.819036,-0.429307,8.034093,5.664804
9.481111,2.433777,1.518250,3.421758,-0.037123,8.013137,5.418117
9.496868,5.050659,0.923157,2.979253,-0.045505,7.887997,5.283996
9.512621,6.202698,0.152588,1.750920,0.100591,7.953860,5.376803
9.528365,8.262634,-0.709534,0.095342,0.031734,7.980205,5.421111
9.544105,11.398315,-1.190186,-1.468684,-0.067659,8.261620,6.157579
9.559739,17.471313,1.686096,-1.232173,-0.011975,8.214917,5.750426
9.575555,18.714905,-0.579834,0.865911,-0.399968,8.425678,5.627681
9.591474,21.476746,1.831055,2.979253,-0.063468,8.155042,4.643927
9.607061,18.852234,3.776550,5.672429,-0.433499,8.326285,4.395444
9.622629,16.410828,3.204346,6.725286,-0.187410,8.623268,3.912249
9.638277,13.175964,2.899170,6.862615,-0.076641,8.643026,3.911650
9.653843,10.635376,2.159119,6.916020,-0.134121,8.840616,3.885304
9.669631,9.307861,3.303528,6.740544,0.099992,8.611293,3.988290
9.685545,7.797241,3.852844,5.519841,0.227527,8.726254,4.093072
9.701522,5.676270,2.960205,4.383061,0.019160,8.596923,4.088283
9.717399,2.685547,1.754761,2.346013,0.173639,8.470585,4.015833
9.733245,-0.900269,-0.808716,-0.415828,0.276026,8.482560,4.032598
9.749185,-4.257202,-1.686096,-2.216365,0.065863,8.549023,4.151152
9.765074,-5.699158,-1.380920,-3.170039,0.040117,8.620274,4.361315
9.780899,-5.996704,-1.808167,-3.177669,-0.091011,8.618478,4.470288
9.796615,-5.096436,-1.541138,-2.613093,-0.208367,8.486752,4.493639
9.812402,-5.386353,-0.930786,-1.804377,-0.089813,8.400531,4.642131
9.828008,-5.302429,-0.839233,-1.529719,-0.005988,8.268805,4.658297
9.843629,-5.653381,-1.083374,-1.300837,-0.062271,8.272397,4.765474
9.860102,-4.699707,-0.534058,-1.094844,-0.031734,8.356223,4.921151
9.876099,-2.006531,-0.503540,-0.957515,-0.111368,8.347241,5.015155
9.892028,0.724792,-0.312805,-0.453975,-0.173040,8.441845,4.969650
9.907729,3.311157,-0.396729,0.225042,-0.142504,8.376581,4.797208
9.923449,4.783630,-0.030518,0.881169,-0.117356,8.331675,4.713383
9.939852,4.829407,0.305176,1.392339,-0.111368,8.352631,4.574471
9.955617,4.188538,0.396729,1.522039,-0.043709,8.472382,4.547527
9.971174,4.188538,0.167847,1.239751,-0.026944,8.532257,4.493639
9.986895,4.180908,0.183105,1.087163,0.023351,8.525671,4.486454
10.002722,4.005432,0.030518,0.537847,0.014969,8.533455,4.299044
10.018524,3.204346,-0.198364,0.209783,-0.009580,8.487949,4.264915
10.034315,1.335144,-0.297546,0.072454,-0.046104,8.510702,4.243360
10.050140,-0.671387,-0.495911,-0.240352,-0.013173,8.535850,4.261921
10.065965,-2.235413,-0.427246,-0.263240,-0.022753,8.545429,4.321797
10.081748,-2.815247,-0.511169,-0.370051,-0.022154,8.556208,4.425980
10.097460,-2.685547,-0.610352,-0.637080,-0.031135,8.499925,4.496634
10.113172,-2.853394,-0.495911,-0.865962,-0.036524,8.288564,4.537349
10.128823,-2.861023,-0.602722,-0.942256,-0.032333,8.389154,4.591237
10.144489,-2.807617,-0.686646,-0.759150,-0.037123,8.346045,4.676260
10.160105,-2.212524,-0.503540,-0.782039,-0.087418,8.376581,4.750505
10.175711,-0.755310,-0.411987,-0.354792,-0.091011,8.277786,4.804393
10.192328,0.854492,-0.274658,0.095342,-0.142504,8.433462,4.752302
10.207918,2.227783,-0.076294,0.492070,-0.094603,8.392148,4.699611
10.223556,2.899170,0.152588,0.789617,-0.047302,8.381969,4.609199
10.239140,2.861023,0.122070,0.804875,-0.043110,8.418493,4.564891
10.254807,2.777100,-0.053406,0.820134,-0.037123,8.456215,4.496634
10.270504,2.799988,-0.152588,0.560735,0.008383,8.530460,4.449332
10.286402,2.822876,-0.160217,0.286077,-0.032333,8.513097,4.445739
10.302218,2.395630,-0.259399,0.118230,-0.000599,8.495134,4.391253
10.318048,1.205444,-0.289917,-0.003840,-0.032333,8.472382,4.326587
10.333918,0.022888,-0.259399,0.049565,-0.011975,8.490943,4.341556
10.349821,-0.999451,-0.289917,-0.133540,-0.019160,8.531658,4.428375
10.365806,-1.396179,-0.373840,-0.103022,-0.015568,8.525671,4.458313
10.381841,-1.617432,-0.480652,-0.431086,-0.007784,8.543633,4.534355
10.397789,-1.869202,-0.434875,-0.499751,-0.011975,8.438851,4.521781
10.413693,-1.922607,-0.617981,-0.713374,-0.071851,8.417895,4.600817
10.429424,-1.701355,-0.465393,-0.690486,-0.034728,8.383766,4.618779
10.445283,-1.235962,-0.541687,-0.484492,-0.095202,8.430469,4.675062
10.461012,-0.335693,-0.289917,-0.019099,-0.095801,8.417296,4.697815
10.476807,0.755310,-0.122070,0.217412,-0.091610,8.420290,4.673266
10.492410,1.556396,-0.152588,0.331853,-0.092807,8.403524,4.674463
10.508078,1.953125,-0.091553,0.431035,-0.016765,8.562794,4.609798
10.523647,2.136230,0.099182,0.423406,-0.068258,8.577164,4.530164
10.539248,2.082825,-0.183105,0.286077,-0.052092,8.480764,4.526571
10.554854,2.044678,-0.320435,0.240300,-0.065863,8.474178,4.513399
10.570449,1.983643,-0.129700,0.331853,-0.024549,8.472382,4.478671
10.586230,1.518250,0.038147,0.202153,0.017963,8.480764,4.437955
10.601996,0.770569,-0.175476,0.148748,-0.063468,8.454419,4.420591
10.617783,0.091553,-0.328064,-0.087764,-0.001796,8.489147,4.435560
10.633639,-0.503540,-0.419617,-0.217463,-0.082029,8.485554,4.449930
10.649560,-0.869751,-0.335693,-0.370051,-0.020358,8.487949,4.488251
10.665409,-0.930786,-0.343323,-0.263240,-0.042512,8.456814,4.528368
10.681116,-1.121521,-0.350952,-0.515010,-0.046104,8.441246,4.691827
10.697100,-1.182556,-0.572205,-0.438716,-0.077838,8.421488,4.702605
10.712816,-1.007080,-0.350952,-0.301387,-0.039518,8.441246,4.590039
10.728506,-0.473022,-0.328064,-0.156428,-0.077838,8.463999,4.624767
10.744253,0.213623,-0.213623,-0.072505,-0.085023,8.416698,4.637939
10.759926,0.762939,-0.259399,0.202153,-0.088616,8.468190,4.608601
10.775677,1.258850,-0.129700,0.171636,-0.056283,8.566985,4.579261
10.791540,1.457214,-0.114441,0.171636,-0.061672,8.576565,4.548126
10.807079,1.495361,-0.144958,0.240300,-0.035327,8.435858,4.564292
10.822721,1.708984,-0.007629,0.362371,-0.053888,8.447833,4.509806
10.838264,1.480103,-0.213623,0.293706,-0.010179,8.477172,4.470288
10.854022,1.304626,-0.137329,0.286077,0.009580,8.472382,4.473282
10.869783,0.938416,-0.183105,0.133489,-0.031734,8.470585,4.451128
10.885624,0.236511,-0.251770,0.019048,-0.047302,8.510702,4.433165
10.901474,-0.198364,-0.358582,-0.156428,-0.034728,8.480764,4.466097
10.917357,-0.411987,-0.305176,-0.164058,-0.049697,8.438252,4.496035
10.933310,-0.648499,-0.221252,-0.217463,-0.052092,8.526868,4.531960
10.949868,-0.579834,-0.244141,-0.179316,-0.021555,8.441845,4.517590
10.966631,-0.633240,-0.267029,-0.217463,-0.062271,8.466992,4.568484
10.982949,-0.656128,-0.350952,-0.209834,-0.019160,8.440049,4.588243
10.998777,-0.289917,-0.305176,-0.049617,-0.037722,8.436457,4.588243
11.014394,0.099182,-0.083923,-0.041987,-0.062271,8.284372,4.598422
11.030044,0.518799,-0.328064,0.102971,-0.089813,8.434061,4.610995
11.046076,0.823975,-0.358582,0.041936,-0.033530,8.425678,4.590638
11.061971,1.083374,-0.205994,0.095342,-0.068258,8.487949,4.551120
11.077581,1.327515,-0.221252,0.156377,-0.029938,8.453820,4.540342
11.093221,1.197815,-0.221252,0.293706,-0.067659,8.465197,4.519386
11.108805,1.167297,-0.213623,0.125859,-0.053289,8.461005,4.537947
11.124361,1.182556,-0.114441,0.202153,-0.015568,8.449629,4.489448
11.139993,0.602722,-0.122070,0.057195,-0.025148,8.474776,4.469090
11.155580,0.114441,-0.396729,0.080083,-0.073647,8.513696,4.493041
11.171314,-0.022888,-0.228882,-0.034358,-0.043110,8.460406,4.472683
11.187238,-0.328064,-0.335693,-0.080134,-0.034728,8.504714,4.490047
11.203138,-0.312805,-0.312805,0.003789,-0.056882,8.465197,4.526571
11.219045,-0.205994,-0.289917,-0.171687,-0.022154,8.469987,4.513997
11.234878,-0.259399,-0.419617,-0.133540,-0.052690,8.440049,4.579860
11.250729,-0.198364,-0.289917,-0.080134,-0.071252,8.443043,4.570280
11.266595,-0.122070,-0.289917,-0.011470,-0.060474,8.456215,4.595428
11.282494,0.183105,-0.381470,-0.110652,-0.056283,8.441246,4.580459
11.298207,0.549316,-0.221252,0.141118,-0.009580,8.426876,4.585249
11.313961,0.808716,-0.221252,0.133489,-0.098196,8.438851,4.558904
11.329646,0.839233,-0.282288,0.171636,-0.023950,8.437055,4.575070
11.345324,0.976562,-0.190735,0.209783,-0.053888,8.417296,4.545133
11.361005,0.885010,-0.167847,0.102971,-0.031734,8.475375,4.509806
11.376626,0.740051,-0.267029,0.133489,-0.067061,8.466394,4.527170
11.392225,0.656128,-0.297546,0.118230,-0.046703,8.468190,4.522978
11.407871,0.648499,-0.274658,0.011418,-0.021555,8.438252,4.519386
11.424452,0.045776,-0.305176,-0.103022,-0.038320,8.443642,4.507411
11.440299,0.000000,-0.534058,-0.103022,-0.053888,8.436457,4.490047
11.455932,-0.045776,-0.335693,-0.080134,-0.048499,8.448431,4.540342
11.471883,-0.183105,-0.251770,-0.019099,-0.047302,8.487350,4.512201
11.487589,-0.183105,-0.305176,-0.087764,-0.056283,8.569380,4.564891
11.503214,-0.175476,-0.267029,-0.156428,-0.033530,8.452622,4.538546
11.518873,0.030518,-0.350952,-0.041987,-0.071851,8.449030,4.602613
11.535124,0.144958,-0.282288,-0.003840,-0.040715,8.445437,4.558305
11.551013,0.373840,-0.190735,-0.057246,-0.052092,8.463400,4.574471
11.566883,0.526428,-0.297546,0.064824,-0.064067,8.462802,4.689432
11.582724,0.671387,-0.335693,0.034307,-0.068857,8.472980,4.693025
11.598632,0.755310,-0.099182,0.011418,-0.104183,8.459807,4.557706
11.614604,0.610352,-0.228882,0.087712,-0.057480,8.465197,4.554114
11.630368,0.679016,-0.221252,0.118230,-0.063468,8.473579,4.526571
11.646030,0.633240,-0.152588,0.102971,-0.037722,8.463999,4.557706
11.661633,0.640869,-0.251770,0.019048,-0.077838,8.464598,4.540342
11.677364,0.465393,-0.328064,0.041936,-0.074844,8.473579,4.509806
11.692961,0.198364,-0.259399,-0.103022,-0.076042,8.472382,4.500824
11.708835,0.045776,-0.175476,-0.072505,-0.020358,8.467591,4.509207
11.724388,0.030518,-0.183105,0.095342,-0.050295,8.426876,4.552916
11.740071,0.061035,-0.282288,-0.011470,-0.081431,8.460406,4.557706
11.756616,0.000000,-0.411987,-0.019099,0.093406,8.444839,4.560102
11.772625,0.045776,-0.190735,0.041936,-0.073048,8.452024,4.560102
11.788429,0.274658,-0.221252,-0.034358,-0.079634,8.463400,4.590039
11.804290,0.312805,-0.152588,0.064824,-0.031734,8.444241,4.570879
11.820013,0.556946,-0.282288,0.148748,-0.112566,8.574170,4.586447
11.835684,0.434875,-0.274658,0.072454,-0.052690,8.450228,4.554712
11.851457,0.579834,-0.198364,0.064824,-0.021555,8.574170,4.563694
11.867375,0.724792,-0.137329,0.064824,-0.113763,8.427475,4.547527
11.883244,0.511169,-0.396729,0.087712,0.034129,8.455616,4.528368
11.899108,0.648499,-0.160217,0.041936,-0.068258,8.434660,4.521781
11.914917,0.305176,-0.328064,-0.003840,-0.017364,8.475974,4.491843
11.930763,0.221252,-0.221252,0.102971,0.016765,8.459209,4.464899
11.946464,0.297546,-0.251770,-0.049617,-0.130529,8.473579,4.488850
11.962162,0.122070,-0.411987,0.019048,-0.017963,8.508905,4.505615
11.977948,0.183105,-0.213623,-0.041987,-0.084424,8.447234,4.509806
11.993622,0.205994,-0.320435,-0.072505,-0.028740,8.481961,4.525373
12.009283,-0.045776,-0.312805,-0.095393,-0.040715,8.446036,4.515793
12.024859,0.167847,-0.350952,-0.064875,-0.044907,8.434061,4.551719
12.040424,0.106812,-0.320435,-0.064875,-0.058678,8.486153,4.554114
12.056023,0.267029,-0.190735,0.072454,-0.079634,8.455018,4.552318
12.071627,0.518799,-0.312805,0.118230,-0.016765,8.450827,4.511003
12.087507,0.450134,-0.213623,0.102971,-0.014969,8.461005,4.546330
12.103365,0.442505,-0.297546,-0.026729,-0.071851,8.568781,4.573873
12.119237,0.572205,-0.305176,0.057195,-0.043110,8.477172,4.551719
12.135102,0.564575,-0.205994,-0.049617,-0.122745,8.477771,4.483461
12.151064,0.503540,-0.213623,0.019048,-0.027543,8.425080,4.509806
12.167022,0.556946,-0.244141,-0.003840,-0.061073,8.466992,4.521781
12.182986,0.434875,-0.236511,0.003789,-0.056283,8.440647,4.509806
12.198929,0.343323,-0.205994,-0.095393,-0.017364,8.468190,4.509806
12.216783,0.175476,-0.320435,0.034307,-0.068258,8.469388,4.533756
12.232561,0.205994,-0.282288,-0.080134,-0.047900,8.447234,4.551120
12.248651,0.228882,-0.404358,-0.103022,-0.038320,8.467591,4.547527
12.264489,0.076294,-0.282288,-0.034358,-0.085622,8.455616,4.539145
12.280275,0.045776,-0.091553,0.011418,-0.041913,8.462802,4.534355
12.295981,0.122070,-0.213623,0.057195,-0.043709,8.449030,4.541540
12.311738,0.328064,-0.183105,0.019048,-0.007784,8.468789,4.534954
12.327473,0.373840,-0.282288,0.049565,-0.050295,8.471783,4.590039
12.343038,0.602722,-0.259399,-0.034358,-0.081431,8.462802,4.563694
12.358636,0.427246,-0.267029,0.080083,-0.035925,8.476573,4.548725
12.374225,0.534058,-0.312805,0.019048,-0.070653,8.439450,4.527170
12.389910,0.602722,-0.267029,-0.019099,-0.062271,8.463400,4.551719
12.405874,0.411987,-0.228882,0.133489,-0.077239,8.463400,4.533756
12.421829,0.389099,-0.289917,-0.049617,-0.038919,8.438252,4.535553
12.437634,0.457764,-0.320435,-0.003840,-0.027543,8.435259,4.562496
12.453379,0.343323,-0.267029,0.026677,-0.050894,8.455616,4.547527
12.469555,0.389099,-0.350952,0.026677,-0.055684,8.462203,4.551719
12.485394,0.190735,-0.289917,-0.026729,-0.073048,8.447234,4.532558
12.501265,0.213623,-0.267029,-0.011470,-0.079634,8.480165,4.537947
12.517182,0.022888,-0.251770,0.049565,-0.006586,8.460406,4.531960
12.533069,0.205994,-0.228882,0.003789,-0.057480,8.442444,4.675661
12.548983,0.305176,-0.373840,-0.034358,-0.055085,8.463400,4.550521
12.564658,0.297546,-0.244141,-0.034358,-0.015568,8.449629,4.422388
12.580280,0.366211,-0.312805,0.003789,-0.074246,8.431666,4.548126
12.596067,0.358582,-0.236511,0.057195,-0.022753,8.429870,4.569681
12.611868,0.564575,-0.236511,0.034307,-0.062869,8.442444,4.551719
12.627740,0.488281,-0.259399,0.011418,-0.017963,8.456215,4.531361
12.643393,0.442505,-0.213623,0.003789,-0.056882,8.458611,4.536151
12.659033,0.366211,-0.221252,0.019048,-0.086221,8.448431,4.503819
12.674648,0.389099,-0.129700,-0.011470,-0.044308,8.459807,4.534954
12.690290,0.358582,-0.320435,-0.011470,-0.089214,8.452622,4.521781
12.705898,0.312805,-0.205994,-0.034358,-0.014370,8.321495,4.543336
12.721758,0.366211,-0.228882,-0.133540,-0.011975,8.451426,4.533756
12.737575,0.289917,-0.328064,-0.011470,-0.044308,8.466992,4.528966
12.753314,0.175476,-0.244141,0.034307,-0.043110,8.465197,4.515793
12.769103,0.282288,-0.167847,0.087712,-0.042512,8.438252,4.516991
12.784913,0.274658,-0.160217,-0.141169,-0.044308,8.465197,4.521182
12.800713,0.389099,-0.343323,0.003789,-0.037123,8.443642,4.536750
12.816463,0.358582,-0.205994,0.057195,-0.086221,8.452024,4.522978
12.832326,0.305176,-0.366211,-0.072505,-0.055085,8.458611,4.530164
12.848200,0.358582,-0.274658,0.049565,-0.031734,8.443642,4.566089
12.863944,0.259399,-0.228882,-0.011470,-0.051493,8.434660,4.543935
12.879634,0.396729,-0.289917,0.080083,-0.064666,8.441246,4.536750
12.895470,0.389099,-0.175476,-0.064875,-0.013771,8.452024,4.534355
12.911195,0.511169,-0.221252,-0.041987,-0.107776,8.478369,4.497831
12.926825,0.373840,-0.236511,0.011418,0.021555,8.499326,4.524775
12.942377,0.381470,-0.267029,-0.103022,-0.119751,8.305329,4.496634
12.958063,0.198364,-0.343323,0.034307,-0.025148,8.459807,4.566688
12.973776,0.312805,-0.450134,-0.034358,-0.029938,8.574170,4.539743
12.989684,0.350952,-0.221252,0.034307,-0.043110,8.458012,4.514596
13.005655,0.144958,-0.244141,-0.041987,-0.040117,8.459209,4.526571
13.021607,0.282288,-0.312805,-0.080134,-0.073048,8.467591,4.537349
13.037470,0.267029,-0.221252,0.026677,-0.017364,8.462203,4.505016
13.054043,0.221252,-0.244141,0.041936,0.008383,8.461005,4.554114
13.070063,0.297546,-0.381470,-0.049617,-0.093406,8.423284,4.530164
13.085705,0.328064,-0.190735,0.102971,-0.034728,8.447833,4.555910
13.101370,0.305176,-0.167847,0.072454,-0.058678,8.469987,4.542139
13.117325,0.556946,-0.312805,0.019048,-0.032932,8.448431,4.532558
13.133064,0.465393,-0.251770,0.041936,-0.013173,8.466394,4.537947
13.148869,0.366211,-0.183105,-0.026729,-0.068258,8.450827,4.547527
13.164550,0.366211,-0.236511,0.072454,-0.020956,8.444839,4.527170
13.180095,0.419617,-0.305176,0.049565,-0.050894,8.483159,4.525972
13.195707,0.434875,-0.144958,0.057195,-0.070653,8.440049,4.530164
13.211303,0.297546,-0.221252,0.102971,-0.028740,8.438851,4.561898
13.226958,0.228882,-0.335693,0.026677,-0.034129,8.434061,4.522978
13.242513,0.244141,-0.297546,-0.103022,-0.035327,8.467591,4.539743
13.258119,0.366211,-0.251770,-0.072505,-0.082029,8.446635,4.537349
13.273707,0.320435,-0.411987,-0.072505,-0.037123,8.463400,4.555910
13.289302,0.305176,-0.183105,0.087712,-0.026944,8.452024,4.524775
13.305268,0.335693,-0.175476,0.080083,-0.065863,11.012898,6.665922
13.321305,0.129700,-1.045227,2.864812,0.321531,9.317225,11.262564
13.336946,58.326721,-11.840820,-8.289363,-2.531536,12.137361,8.214302
13.352673,132.446289,-4.684448,-9.296443,0.291594,12.517570,8.420274
13.368705,133.018494,-0.831604,-12.531306,1.254391,9.965077,6.120457
13.384414,147.727966,-4.287720,-11.463191,-0.147294,10.279424,5.389976
13.400042,154.640198,-5.058289,-14.041926,0.083826,7.543713,5.602533
13.415671,173.133850,-7.431030,-15.636470,-0.447869,9.192684,5.727075
13.431261,188.278198,-10.276794,-14.713313,-0.173040,6.791078,4.200849
13.446867,203.445435,-6.607056,-15.445735,-1.885479,5.815706,5.025334
13.462459,219.696045,-7.507324,-3.520991,0.465831,4.453539,2.569241
13.478022,220.321655,-9.094238,-3.894832,-1.687890,5.070855,0.876561
13.493584,211.341858,-14.175415,3.452275,-1.604663,-1.358575,-1.644197
13.509174,140.213013,-2.166748,6.572698,-1.423839,-1.765129,0.262838
13.524792,67.619324,-3.128052,5.420659,-0.812510,3.648213,-1.085559
13.540409,68.618774,3.662109,8.197759,1.927991,5.528304,-2.262112
13.556611,128.166199,-15.258789,44.277164,-5.137317,19.617605,0.457433
13.572572,87.821960,-5.462646,26.073431,0.337698,19.617605,6.494678
13.588453,55.015564,-18.203735,-14.476802,1.971700,-17.421970,3.003937
13.604100,109.725952,-17.265320,6.389592,1.385519,-5.243297,-0.159285
13.620021,57.426453,-50.735474,-0.316646,-5.275629,19.617605,6.190511
13.635754,34.614563,4.417419,-20.961786,-9.015452,19.617605,-9.598057
13.651573,69.709778,43.258667,15.392278,2.786605,4.420607,-2.514786
13.667231,87.318420,-0.389099,-3.551509,4.588858,5.528903,-0.018577
13.682943,79.162598,-15.663147,-8.014705,-3.458408,14.415623,-9.964495
13.698761,112.152100,10.292053,4.909490,-2.276466,7.780221,-1.579531
13.714517,81.619263,10.810852,2.704595,0.877775,4.956493,-3.976946
13.730359,77.972412,15.136719,-1.430537,1.751957,9.364527,-6.505487
13.746148,71.777344,2.967834,-11.600520,1.471141,6.400091,-5.998343
13.761788,73.654175,10.429382,-8.358027,-0.881367,7.510781,-5.267262
13.777404,70.617676,10.810852,-5.176570,1.209485,6.417455,-6.251017
13.792966,74.501038,2.471924,-3.795650,-0.246088,7.895781,-6.652781
13.808545,59.570312,4.417419,2.552007,0.725691,5.737269,-6.452199
13.824145,61.279297,-3.166199,-0.278499,-0.277822,7.435338,-7.668869
13.839799,56.816101,-3.311157,-1.857783,0.098795,6.417455,-6.282751
13.855543,54.519653,-4.150391,1.316045,0.274828,6.876101,-6.652781
13.871299,54.183960,-5.928040,2.330754,-0.311353,6.223458,-6.402502
13.887016,51.422119,-7.217407,4.131291,0.074844,6.762338,-6.957548
13.902814,50.460815,-7.484436,4.238103,0.014370,6.179749,-6.482735
13.918601,49.476624,-9.529114,2.803777,-0.464634,6.525829,-7.486847
13.934442,44.692993,-7.461548,2.513860,-0.122745,6.350993,-7.091070
13.950352,42.144775,-3.646851,1.049016,-0.467029,6.277346,-6.558178
13.966219,42.381287,-2.067566,-0.659968,0.078437,6.665339,-7.356917
13.982033,41.282654,-0.839233,-1.171138,0.183219,6.411467,-6.771934
13.997711,44.487000,1.609802,-2.323176,-0.616718,6.261778,-6.598894
14.013322,35.789490,17.677307,2.162908,-0.222138,4.533173,-8.631666
14.028997,26.298523,-6.210327,-2.407100,-0.274828,4.835545,-9.525008
14.044567,26.855469,7.614136,-2.841975,-0.607137,5.021158,-6.728823
14.060101,25.894165,4.737854,-4.276301,0.228724,6.322852,-9.135220
14.075691,25.955200,2.433777,-1.514460,-0.684976,5.355863,-7.648511
14.091203,23.864746,3.692627,-2.742793,0.147294,5.161866,-8.840631
14.106893,20.225525,0.648499,-1.430537,0.249082,5.167254,-8.217927
14.122653,13.122559,1.373291,-0.659968,0.732876,4.914580,-8.428089
14.138488,8.979797,-0.091553,-1.026179,0.360450,5.193600,-8.326302
14.154232,4.364014,-0.228882,0.759099,0.143102,5.156477,-8.386776
14.169977,2.395630,-1.754761,0.476812,-0.149689,5.149292,-8.217927
14.186033,0.167847,-1.060486,1.010869,-0.091610,5.191205,-8.399948
14.201858,-3.410339,-3.540039,2.086614,-0.246687,5.124743,-8.296364
14.217674,-7.186890,-2.487183,1.544927,-0.428110,5.115163,-8.255649
14.234214,-13.099670,-3.364563,2.147649,-0.118553,5.252278,-8.298759
14.250441,-15.945435,-3.158569,2.490972,-0.273032,5.175637,-8.123922
14.267123,-17.044067,-2.052307,-0.995662,0.637674,2.189647,-7.290455
14.282750,-43.922424,-6.378174,7.488225,-1.492097,-4.360133,-11.546405
14.298872,-154.502869,-1.525879,-1.155879,-0.277223,-1.545985,-7.152143
14.314616,-191.566467,-8.987427,-11.516597,2.947072,9.753717,-10.762036
14.330310,-151.367188,2.761841,9.952519,2.441722,4.798422,-4.991237
14.345974,-135.772705,0.076294,0.637029,1.845363,7.528145,-7.376676
14.362021,-128.662109,-0.511169,7.015203,1.132844,8.916657,-7.044966
14.377608,-116.127014,-6.340027,3.040288,1.181942,7.220385,-7.297041
14.393262,-98.037720,-8.247375,6.809209,1.053809,8.702902,-6.603085
14.408832,-76.736450,-8.460999,7.076238,-0.055684,8.960965,-5.877993
14.424424,-37.796021,-9.132385,-1.461055,0.354463,9.272917,-2.680641
14.440158,-20.027161,-7.240295,2.208684,0.798140,10.721904,-1.156810
14.455918,35.667419,-7.881165,5.390141,-0.025148,10.180031,0.983738
14.471753,81.085205,-11.375427,0.797246,0.080832,12.391831,-0.320350
14.487614,77.774048,-10.704041,0.331853,-1.345402,8.733438,-0.616733
14.504241,68.969727,-4.364014,3.841374,-0.191602,7.079678,-2.345937
14.520351,33.920288,-4.241943,2.010320,-0.247885,6.470744,-3.539855
14.536020,-0.564575,-6.683350,-0.385310,-0.213755,7.133566,-3.752413
14.551663,-26.771545,-5.157471,1.163457,-0.584984,6.436615,-4.513430
14.567834,-46.524048,-3.402710,3.398870,-0.354463,7.373068,-4.817598
14.583529,-53.291321,-2.876282,1.461003,-0.211959,8.725056,-5.704952
14.599125,-53.421021,1.220703,-1.331355,-0.412542,8.807684,-5.837277
14.614736,-38.490295,1.869202,0.682805,-0.891546,9.007070,-5.851647
14.630344,-22.407532,4.066467,-1.209285,-0.919089,9.167536,-6.004330
14.645934,-8.255005,4.447937,-1.705195,-0.604144,8.903485,-5.983972
14.661586,14.732361,5.195618,-2.048518,-0.855621,9.321416,-6.252813
14.677156,27.870178,7.102966,-1.163508,-0.247286,8.593929,-6.096538
14.692763,37.582397,6.278992,-1.293208,-0.009580,8.099957,-5.487006
14.708354,41.595459,7.034302,-2.185847,-0.137115,8.992101,-5.257084
14.724039,40.687561,6.156921,-2.903010,0.014370,7.650890,-4.609830
14.739850,38.131714,4.325867,-2.773311,-0.273032,7.689809,-4.672100
14.755729,30.120850,3.974915,-2.223994,0.257465,8.010741,-4.675094
14.771530,24.459839,1.678467,-2.674129,-0.184417,7.198830,-4.198485
14.787315,20.446777,0.228882,-1.575496,-0.460443,7.756271,-4.275126
14.803143,19.653320,-0.267029,-2.773311,-0.020956,7.864047,-4.866097
14.818972,22.918701,-1.289368,-1.804377,-0.046104,7.927515,-4.948725
14.834853,27.595520,-0.602722,-1.628901,0.029938,7.995174,-5.548079
14.850678,35.110474,-0.556946,-1.758601,0.144899,7.922725,-5.974392
14.866496,45.486450,0.137329,-1.155879,-0.092807,9.160351,-6.185154
14.882247,49.499512,1.663208,-2.178218,-0.196392,7.408993,-5.946250
14.897956,55.603027,-1.228333,-2.147700,-0.126936,7.512578,-5.840271
14.913599,60.546875,-1.884460,-1.117732,-0.292791,7.456295,-5.622324
14.929384,63.835144,-3.479004,-1.270320,-0.102986,7.416777,-5.227146
14.945182,68.389893,-5.035400,-2.437617,-0.252076,7.295229,-5.215770
14.960740,71.640015,-5.157471,-1.346614,0.753234,8.969947,-7.314405
14.976297,60.340881,6.950378,8.609746,0.050295,5.914501,-6.233054
14.991927,64.468384,3.852844,1.979802,1.040636,7.123387,-6.779717
15.007512,55.084229,-4.264832,-7.350947,1.356180,6.735992,-6.555783
15.023237,69.999695,-1.777649,-3.994014,-1.768722,6.670728,-8.177810
15.038996,71.998596,4.188538,4.360173,-0.000599,6.755153,-6.776125
15.054738,89.744568,-0.511169,-2.658870,-0.390388,6.634204,-7.990400
15.070587,90.858459,-1.068115,-3.337886,-0.844843,4.914580,-7.378472
15.086460,98.419189,0.328064,-0.705745,-0.935255,5.204976,-7.887414
15.102280,94.047546,-0.328064,-1.079585,-0.146695,4.380491,-8.410127
15.118223,93.460083,0.602722,-2.056148,-0.343087,5.207970,-8.529878
15.134139,90.309143,2.914429,-2.071406,-0.320334,4.784650,-7.525167
15.150005,91.041565,5.172729,-4.825618,-0.211959,4.711003,-7.904778
15.165799,91.438293,4.402161,-6.511714,-1.266965,4.990622,-8.147872
15.181516,90.698242,4.028320,-6.137874,-0.410746,3.510500,-8.548439
15.197287,94.093323,5.424500,-7.785823,0.468226,4.023034,-8.661604
15.213487,91.896057,7.057190,-6.343867,0.523312,2.807562,-9.249581
15.229360,98.449707,6.042480,-7.091548,-0.292791,3.977529,-10.657254
15.246102,95.390320,6.454468,-5.306270,-1.413660,3.743416,-8.263432
15.261869,104.507446,2.716064,-4.741694,0.065863,1.942361,-9.599255
15.277528,108.299255,1.884460,-5.535151,-0.582588,2.159709,-9.412442
15.293171,111.770630,2.166748,-2.841975,0.628094,1.868714,-9.650747
15.309139,108.291626,0.915527,-2.491023,0.253872,3.284769,-9.971081
15.324764,109.779358,0.183105,-1.018550,0.112566,1.178350,-9.490281
15.340605,107.383728,-0.717163,-1.857783,-0.255668,0.886756,-9.546564
15.356522,104.354858,-0.572205,-2.498652,-0.065264,0.257465,-9.034030
15.372336,104.286194,1.281738,-3.673579,-0.499362,-0.291594,-9.455553
15.388176,105.186462,1.266479,-3.437068,-1.247805,-0.892744,-11.398513
15.404003,108.200073,0.061035,-5.229976,-0.006586,-1.029858,-10.547083
15.419888,105.705261,1.502991,-6.847407,-0.480800,-0.823887,-9.207668
15.435820,111.259460,3.067017,-5.435969,-0.096400,-1.898652,-9.915397
15.451731,114.143372,1.579285,-6.549861,0.074246,-1.125659,-10.491399
15.467686,109.909058,0.930786,-6.946589,-0.484393,-2.451901,-8.853206
15.483379,107.788086,1.594543,-7.663753,0.149090,-1.866319,-9.135818
15.499135,108.276367,1.152039,-9.349849,-0.083227,-3.380570,-9.078338
15.514759,105.316162,0.167847,-5.565669,-0.075443,-2.796185,-8.628074
15.530443,102.104187,-0.282288,-5.329158,0.132325,-3.377576,-9.350172
15.546419,102.737427,0.755310,-5.802180,0.220342,-4.595444,-9.068158
15.561977,103.836060,-1.014709,-3.978755,0.000000,-4.170927,-9.037622
15.577551,106.956482,-1.281738,-2.346065,0.056283,-5.076843,-9.836361
15.593106,107.421875,-0.785828,-1.689937,0.422721,-3.948190,-8.836440
15.608739,105.125427,-0.976562,-1.407649,0.044308,-5.063071,-8.044887
15.624326,102.172852,-0.793457,0.606511,-0.446072,-5.453459,-7.887414
15.640033,101.051331,-1.022339,3.841374,-0.255668,-5.975574,-8.255649
15.655701,99.136353,-1.533508,3.452275,-0.007185,-6.362968,-8.344264
15.671383,95.832825,-0.350952,2.117131,-0.243693,-5.935457,-7.690423
15.687200,94.490051,-0.442505,3.795598,-0.121547,-7.606582,-7.317998
15.703013,95.718384,0.175476,4.482244,0.171244,-6.781498,-7.551512
15.718783,95.832825,0.724792,3.734563,0.168250,-7.286248,-7.607197
15.734650,94.169617,0.976562,2.941106,0.138911,-7.093449,-7.093465
15.750878,91.873169,-0.312805,1.552556,0.403561,-7.516769,-5.995348
15.766570,91.499329,-1.075745,1.941655,-0.480201,-6.384523,-7.249141
15.782293,89.347839,0.633240,1.354192,-0.565823,-8.521480,-6.631825
15.798047,86.799622,-1.861572,1.415227,-0.075443,-7.989785,-6.059415
15.813802,86.181641,0.137329,2.284978,0.022154,-8.501122,-6.294127
15.829359,85.266113,-0.938416,0.324224,0.041913,-9.089698,-6.236647
15.844945,83.709717,0.144958,0.682805,-0.159868,-8.323891,-5.547480
15.860530,80.749512,0.457764,0.972722,-0.079036,-8.398735,-5.158888
15.876096,80.062866,-0.076294,0.759099,-0.240699,-8.662786,-5.220560
15.891747,80.673218,0.457764,-5.458858,0.724493,-19.152372,-7.929925
15.907501,87.158203,-9.361267,-7.450130,-2.314786,-7.550898,-6.531833
15.923254,68.527222,-3.738403,-11.737849,-1.384321,-11.220667,-3.570391
15.939092,66.131592,-4.882812,-14.453914,0.257465,-9.618998,-2.889008
15.954940,63.507080,-10.978699,-10.684993,-1.719624,-11.108101,0.066446
15.970824,36.018372,-2.250671,-13.668086,-0.930465,-10.713521,-0.746663
15.986672,17.639160,2.059937,-4.833247,-0.155078,-11.011103,-2.132781
16.002577,1.907349,6.927490,3.223393,0.823288,-8.530460,-2.869249
16.018491,-12.794495,8.300781,0.209783,2.459086,-12.153526,-0.586796
16.034389,-18.463135,-0.175476,-1.667048,1.210682,-7.377259,-4.754129
16.050278,-32.096863,-2.265930,-0.377681,1.403481,-8.132289,-4.051191
16.065961,-40.504456,-4.829407,3.604863,1.120869,-9.442365,-4.138609
16.081663,-42.579651,-2.487183,2.414678,0.191602,-8.616083,-4.876276
16.097419,-32.287598,-5.180359,3.955815,-0.008981,-10.086026,-5.097815
16.113079,-23.880005,0.778198,11.524175,-0.418530,-9.051377,-5.328934
16.129071,-20.538330,11.184692,17.269110,-0.613125,-9.095685,-4.908010
16.144980,-17.478943,7.148743,13.324712,-0.144899,-8.996292,-4.686471
16.160545,-20.729065,2.494812,9.616826,-0.028141,-8.769364,-4.328415
16.176116,-23.170471,4.295349,8.861516,0.306563,-8.689131,-4.635576
16.191935,-28.099060,4.211426,6.442998,0.026944,-8.302335,-4.896633
16.207775,-30.845642,0.984192,4.131291,-0.328118,-8.699908,-5.221159
16.223606,-31.448364,1.068115,3.543828,-0.298779,-8.238269,-5.416353
16.239422,-32.012939,0.541687,2.796147,-0.191602,-8.629255,-5.488802
16.255598,-28.137207,0.038147,0.995610,-0.615520,-8.532856,-5.458265
16.271457,-28.541565,-0.595093,-3.162410,-0.280217,-8.502918,-5.289416
16.287397,-29.304504,-0.610352,-3.543880,-0.028740,-8.304132,-5.548079
16.303264,-31.158447,-0.328064,-5.527522,-0.118553,-8.358618,-5.591189
16.319073,-32.295227,-1.754761,-6.931331,-0.041913,-8.302335,-5.634299
16.335346,-31.501770,-3.196716,-6.488826,0.025148,-8.455018,-5.959423
16.351981,-27.709961,-1.831055,-5.161311,0.166454,-8.064630,-5.898949
16.367787,-28.160095,-1.708984,-2.864863,0.181423,-8.048463,-5.941461
16.383423,-28.427124,-0.961304,-0.637080,0.423918,-7.840096,-5.919307
16.399075,-30.509949,-1.091003,0.675176,0.256866,-7.882010,-5.946849
16.415136,-32.058716,-0.663757,1.743291,0.084424,-7.933502,-6.055823
16.431230,-33.149719,0.198364,2.605412,-0.074246,-7.759863,-6.319275
16.446913,-32.859802,0.953674,3.429387,-0.205972,-7.854466,-6.397712
16.462526,-32.058716,0.465393,4.070256,-0.120948,-7.770042,-6.694694
16.478071,-33.172607,1.670837,4.589055,-0.124541,-7.703580,-6.615060
16.493653,-31.730652,1.556396,3.856633,-0.002994,-7.446115,-6.431841
16.509270,-33.271790,0.350952,2.574895,-0.222138,-7.551497,-6.858753
16.525100,-33.317566,1.075745,1.224492,0.004790,-7.483837,-6.708466
16.540899,-33.485413,0.389099,-0.225093,0.043110,-7.448511,-6.641405
16.556716,-33.599854,-0.244141,-0.820186,0.306563,-7.255113,-6.815643
16.572485,-34.080505,-1.358032,0.209783,0.043110,-7.097641,-6.922221
16.588431,-33.790588,-0.747681,0.171636,0.004191,-7.056326,-7.153939
16.604331,-33.393860,-1.342773,0.156377,0.052690,-7.032975,-7.130588
16.620481,-33.317566,-1.518250,-0.507380,-0.109572,-6.986871,-7.086879
16.637253,-34.408569,-0.488281,-0.751521,-0.097597,-6.827003,-7.138970
16.653069,-35.804749,-0.267029,-0.423457,-0.288001,-6.635402,-7.386256
16.668901,-36.064148,-0.175476,0.354741,-0.129331,-6.680308,-7.434755
16.684522,-34.469604,-0.717163,1.934026,0.029339,-6.712042,-7.528760
16.701070,-34.027100,1.914978,2.826665,0.247286,-6.546786,-7.683239
16.716852,-34.202576,-0.389099,2.559636,0.243094,-6.488108,-7.434156
16.732689,-34.332275,0.083923,2.910588,-0.134720,-6.373147,-7.665276
16.748427,-34.248352,0.198364,3.086064,-0.052092,-6.134842,-7.814965
16.764120,-35.514832,0.434875,4.123662,-0.073048,-6.245013,-7.902982
16.779758,-36.346436,0.488281,3.452275,0.143701,-6.074368,-7.913160
16.795315,-35.057068,-0.144958,1.041387,0.065264,-6.013894,-8.010159
16.810966,-33.737183,-0.312805,0.255559,-0.344284,-6.014493,-8.158051
16.826540,-32.135010,-0.030518,1.171086,-0.325124,-5.833669,-8.317919
16.842192,-31.562805,0.267029,0.896428,-0.043709,-5.692961,-8.162243
16.858183,-32.089233,0.045776,-0.499751,-0.067061,-5.516928,-8.153261
16.874094,-32.676697,-0.259399,-1.522090,-0.058079,-5.475015,-8.240081
16.889870,-32.699585,-0.152588,-0.690486,-0.199984,-5.252278,-8.276006
16.905652,-32.691956,0.267029,-0.637080,0.118553,-5.367239,-8.281994
16.921480,-32.066345,0.305176,-1.613643,-0.131726,-5.181625,-8.462218
16.937335,-32.112122,0.160217,-1.415278,-0.134121,-5.065466,-8.572989
16.953197,-31.799316,-0.556946,-0.957515,-0.095801,-5.175038,-8.626278
16.969072,-30.204773,-0.221252,-1.110103,0.143701,-5.004992,-8.699924
16.986245,-29.075623,-0.534058,-1.392390,-0.040715,-4.907994,-8.693338
17.002047,-28.533936,-0.587463,-0.103022,-0.260458,-4.717590,-8.653221
17.018930,-27.908325,-0.846863,1.071904,0.017963,-4.688251,-8.717887
17.034752,-27.519226,-0.289917,0.659917,-0.042512,-4.446952,-8.776565
17.050487,-27.290344,-0.152588,1.018499,-0.213157,-4.545148,-8.774170
17.066271,-27.259827,-0.358582,1.697515,-0.224533,-3.440446,-9.443578
17.082431,-26.557922,0.442505,1.911138,0.028740,-4.479285,-9.086720
17.099982,-27.214050,0.556946,0.835393,-0.074844,-4.461921,-9.095701
17.117622,-25.428772,0.411987,0.316594,-0.123344,-4.536167,-9.193897
17.133378,-24.848938,0.457764,-0.171687,-0.086221,-3.925437,-8.878952
17.149235,-25.154114,0.411987,-1.255061,-0.072449,-3.982319,-9.013672
17.164938,-24.322510,0.427246,-1.552607,-0.222138,-3.828439,-9.202280
17.180641,-24.017334,-0.030518,-1.659419,0.061073,-3.983516,-9.192699
17.196324,-22.750854,0.038147,-2.223994,-0.101788,-3.879932,-9.012474
17.211909,-20.103455,-1.586914,-0.896479,0.156874,-3.729045,-8.983734
17.227480,-21.255493,-2.510071,-0.141169,0.008383,-3.517086,-8.989123
17.243152,-23.635864,-1.708984,1.888250,-0.048499,-3.530858,-9.074146
17.258952,-24.024963,-0.473022,3.047917,-0.193997,-3.644022,-9.340592
17.274869,-22.613525,-0.267029,2.208684,-0.166454,-3.658392,-9.911205
17.290676,-18.203735,-1.426697,1.964543,-0.165855,-3.629652,-9.538780
17.306488,-16.960144,0.000000,1.392339,0.032932,-3.296744,-9.501657
17.322391,-13.549805,0.007629,0.881169,-0.112566,-3.497327,-9.283112
17.338312,-12.283325,-0.022888,0.385259,-0.134720,-3.354824,-9.183719
17.354266,-12.390137,-0.450134,0.087712,-0.134121,-3.057242,-9.048999
17.370279,-14.007568,-0.061035,-0.438716,-0.152682,-2.997367,-9.074745
17.386032,-15.388489,-0.190735,-0.881221,-0.097597,-3.084785,-9.233415
17.401783,-15.518188,-0.053406,-1.209285,-0.097597,-3.175197,-9.381308
17.417501,-14.305115,0.022888,-0.736262,-0.061073,-3.141667,-9.545965
17.433108,-9.956360,-0.061035,-0.133540,0.026345,-3.094964,-9.601649
17.448659,-9.376526,-0.389099,0.202153,-0.005988,-3.026706,-9.526206
17.464355,-7.247925,-0.411987,1.071904,-0.120350,-2.920726,-9.411245
17.479981,-6.286621,-0.724792,0.987981,-0.050295,-2.857258,-9.334604
17.495592,-6.561279,-0.595093,0.438665,-0.143701,-2.848876,-9.377715
17.511198,-7.575989,-0.465393,0.797246,-0.148491,-2.827919,-9.271735
17.526900,-8.125305,-0.427246,0.469182,-0.055085,-2.767445,-9.354363
17.542614,-5.920410,-0.228882,-0.087764,-0.122745,-2.772834,-9.486090
17.558516,-3.952026,-0.183105,-0.225093,-0.116757,-2.773433,-9.576502
17.574396,-3.295898,0.038147,-0.568416,-0.070054,-2.796784,-9.602248
17.590260,-1.091003,-0.030518,-0.888850,-0.097597,-2.804568,-9.539379
17.606294,0.450134,-0.030518,-0.537898,-0.065264,-2.755470,-9.431602
17.622337,1.007080,-0.228882,-0.148799,-0.020956,-2.720143,-9.344185
17.638340,1.068115,-0.488281,0.217412,-0.019759,-2.664459,-9.329815
17.654338,1.144409,-0.480652,0.423406,-0.051493,-2.712360,-9.422023
17.669989,3.730774,-0.465393,0.186895,-0.107177,-2.784210,-9.488484
17.685749,3.524780,-0.129700,-0.415828,-0.143701,-2.802772,-9.556743
17.701362,5.050659,0.312805,-0.881221,-0.122146,-2.814148,-9.520817
17.717068,6.393433,0.076294,-1.094844,-0.099992,-2.859653,-9.441782
17.733495,6.599426,-0.236511,-1.026179,-0.057480,-3.036885,-9.392085
17.749374,6.759644,-0.144958,-0.484492,0.007784,-2.899770,-9.344784
17.765064,6.843567,-0.076294,-0.064875,-0.007784,-2.887795,-9.357357
17.781520,7.080078,-0.366211,0.095342,-0.057480,-2.917732,-9.535786
17.797572,7.698059,-0.427246,0.247930,-0.040715,-3.008743,-9.387295
17.813316,8.598328,-0.389099,0.301335,-0.037123,-3.048860,-9.435195
17.828993,9.414673,-0.305176,0.286077,-0.099992,-3.109933,-9.450164
17.844568,9.910583,-0.373840,0.202153,-0.071252,-3.129093,-9.367536
17.860150,10.261536,-0.244141,-0.049617,-0.101788,-3.111729,-9.326820
17.875999,10.574341,-0.114441,-0.293757,-0.147892,-3.109334,-9.328617
17.891796,10.444641,-0.061035,-0.827815,-0.052092,-3.114124,-9.296284
17.907685,10.704041,0.106812,-1.087214,-0.046703,-3.210524,-9.282513
17.923472,10.765076,0.183105,-1.178767,-0.066462,-3.262615,-9.337000
17.939517,11.375427,-0.289917,-0.698115,-0.016166,-3.359614,-9.353166
17.955407,11.940002,-0.335693,-0.392939,-0.002395,-3.380570,-9.375319
17.971339,12.687683,-0.434875,-0.179316,-0.038919,-3.383564,-9.320234
17.987730,-1.831055,2.037048,-0.797297,-0.452659,-4.403842,-10.503973
18.003449,16.334534,8.689880,2.277349,0.328118,-4.533173,-11.233256
18.019431,50.308228,2.891541,-0.415828,-0.358654,-4.200265,-11.695495
18.035230,59.402466,-5.065918,-3.536250,-0.535287,-3.761378,-10.690784
18.050940,58.853149,-2.662659,-0.759150,0.883163,-4.434379,-10.703358
18.066580,66.970825,2.914429,2.124761,0.183219,-4.535568,-10.399191
18.082457,80.062866,0.953674,2.628301,-0.120948,-4.514612,-9.745350
18.098004,86.654663,-5.203247,1.857732,0.067061,-4.497248,-9.696851
18.113564,87.638855,-1.052856,2.559636,0.431104,-4.651128,-9.251377
18.129135,96.427917,-0.061035,5.916570,-0.379611,-5.557643,-9.589075
18.144718,107.780457,-1.914978,5.878423,-0.328118,-4.828958,-9.466929
18.160321,114.494324,-3.440857,6.961797,-0.286205,-4.476292,-9.444776
18.176089,115.470886,0.320435,9.532903,0.065863,-5.526507,-8.496347
18.191937,124.656677,1.976013,11.486028,0.031734,-5.545668,-8.176014
18.207723,131.881714,0.808716,11.333440,-0.497565,-5.849236,-7.532951
18.223814,136.177063,-0.251770,11.760686,-0.331710,-6.482719,-7.309616
18.239950,141.441345,2.052307,12.630437,-0.853824,-5.860613,-8.038898
18.255746,150.321960,3.273010,13.553594,-0.566422,-6.239625,-7.501217
18.271523,159.942627,1.251221,13.774846,-0.074844,-6.296506,-6.543808
18.288334,168.823242,1.281738,11.890386,0.016166,-6.472540,-5.088834
18.304259,178.970337,-1.014709,11.997197,-0.290995,-4.864285,-4.808616
18.319971,168.457031,1.632690,11.379216,-0.258662,-4.442761,-4.337396
18.335725,146.972656,2.609253,11.287663,0.073048,-3.527864,-3.526682
18.351420,127.273560,3.715515,8.708928,-0.138312,-4.178112,-3.292569
18.367035,107.376099,1.480103,9.090398,-0.772394,-4.573889,-3.232095
18.382689,91.644287,-4.203796,6.290410,-0.396376,-4.606820,-4.851128
18.398255,82.054138,4.440308,2.658818,-0.329315,-7.465276,-6.239641
18.413932,77.377319,4.310608,2.078984,-0.230521,-10.481803,-5.240917
18.429595,99.243164,7.873535,-0.484492,-1.178948,-10.408156,-2.960859
18.445269,126.243591,-3.158569,2.048467,-0.131726,-10.107581,-2.738122
18.460842,152.671814,-4.135132,-1.453425,-1.078358,-9.733359,-4.599651
18.476716,168.624878,-4.806519,-4.428889,-0.193398,-6.681506,-3.026123
18.492541,165.939331,-8.392334,-4.726436,-1.200504,-8.228688,-1.342424
18.508358,164.260864,-6.492615,-6.832149,-0.626298,-7.478448,-1.981894
18.524184,170.349121,-11.398315,-6.572749,-0.177231,-7.258107,-0.885574
18.541202,190.681458,-8.956909,-9.838130,0.892744,-10.135723,-0.638887
18.557026,215.812683,-13.961792,-6.877925,-1.307082,-3.175796,-0.749058
18.572955,240.951538,-57.662964,-37.677792,-12.679234,-19.617605,8.338843
18.588803,146.263123,-2.510071,16.735052,-1.323248,7.662865,10.517713
18.604612,192.611694,-47.744751,-0.469233,3.861969,-1.301693,-2.520774
18.620411,158.882141,3.349304,-35.175350,-2.708168,-18.222506,7.134748
18.636289,151.870728,-15.876770,17.467474,-3.534450,-19.617605,18.682335
18.652112,156.692505,-34.385681,4.558537,2.190844,-9.157357,2.474638
18.667755,141.502380,-6.843567,0.461553,-1.156794,-9.270522,4.255934
18.683403,138.267517,5.027771,5.756352,-2.020798,-9.848919,5.618700
18.699101,137.649536,-4.966736,6.206487,-0.004191,-7.895182,6.251584
18.714658,138.763428,-14.572144,3.726933,-2.347119,-8.734636,8.495717
18.730216,140.235901,-0.991821,1.323674,1.226849,-5.334906,4.011043
18.745788,129.806519,3.044128,0.751470,-0.527503,-7.028185,8.387342
18.761410,128.082275,2.685547,1.300786,0.420925,-5.624703,6.248590
18.777000,122.657776,1.289368,-1.338984,0.229922,-6.336623,7.484420
18.792921,121.170044,7.530212,-7.267024,3.531456,1.268163,7.795773
18.808829,101.501465,13.496399,7.442449,1.220861,-5.477410,9.345350
18.824691,86.357117,-7.667542,-4.100825,-1.687890,-5.303771,8.001145
18.840546,80.276489,13.931274,1.666997,-1.074166,-5.995333,10.884749
18.856351,83.404541,-2.243042,-4.695918,-1.411864,-4.455934,9.226797
18.872270,83.946228,7.331848,-1.361873,-0.255070,-5.121749,7.376644
18.888146,80.528259,3.936768,-4.421260,-1.295107,-5.413343,9.994999
18.903998,81.634521,4.150391,-1.735713,-0.166454,-4.423601,8.657980
18.920232,73.844910,3.738403,-1.987483,0.192799,-4.061953,9.449533
18.936440,71.716309,3.875732,-0.141169,-0.198787,-1.315464,7.241326
18.952072,54.306030,9.658813,2.735112,0.347278,0.158670,16.407066
18.968044,-18.302917,-13.305664,-1.529719,0.507145,0.771196,6.832376
18.983778,-81.970215,4.837036,1.880620,-1.849554,-2.202220,7.495198
18.999360,-89.286804,-0.694275,-3.040339,-0.979563,-6.049819,9.422589
19.015006,-82.565308,-0.892639,-2.574946,0.081431,-6.471343,9.976438
19.030927,-89.691162,3.997803,1.697515,0.678389,-3.742817,10.750030
19.046522,-82.832336,6.439209,-2.666499,-0.010179,-5.583389,10.138700
19.062116,-69.145203,6.088257,-5.977656,0.045505,-6.210885,12.143332
19.077751,-51.986694,7.209778,-1.430537,0.687371,-4.328998,7.850858
19.093373,-47.920227,12.626648,-4.352595,0.143102,-4.513414,5.979749
19.109180,28.358459,4.173279,-6.343867,-0.822689,-12.746893,8.351418
19.124876,94.497681,8.720398,-2.994563,-0.322130,-11.328443,5.055871
19.140643,131.469727,5.905151,-1.041438,-0.584984,-8.538244,3.542817
19.156480,128.425598,7.843018,2.918218,-0.470023,-7.529942,3.627241
19.172737,84.869385,8.308411,3.902410,0.063468,-4.015250,3.962544
19.188970,49.438477,5.134583,2.262090,-0.393981,-4.752317,6.488691
19.204591,23.139954,-1.777649,0.896428,-0.657433,-5.093009,8.086169
19.220419,13.092041,-0.862122,1.193975,-0.387993,-4.136199,10.008771
19.236326,14.427185,-2.281189,3.559087,-0.506547,-3.761977,11.540386
19.252232,25.688171,-7.415771,7.579778,0.363444,-3.947591,11.507454
19.267955,39.314270,-7.865906,7.236455,-0.431104,-3.670966,12.464863
19.284046,53.726196,-7.919312,8.609746,-0.898132,-3.620072,11.755339
19.299775,67.047119,-5.821228,6.496404,-0.850831,-4.163143,10.073437
19.315529,73.913574,-7.705688,4.985784,-0.554447,-4.329597,9.363313
19.331087,76.324463,-5.813599,3.818486,-0.820294,-4.231999,7.975399
19.346647,67.131042,-1.808167,2.689336,-0.393981,-3.847000,7.101816
19.362217,55.511475,0.328064,1.491521,-0.526306,-3.823649,6.914405
19.377884,40.412903,1.190186,0.415776,-0.199385,-3.652405,7.181450
19.393592,30.097961,1.426697,0.637029,0.192200,-3.346441,8.512483
19.409337,25.131226,0.885010,0.865911,0.142504,-2.947670,9.750708
19.425173,27.008057,-0.190735,2.162908,0.267045,-2.809358,10.826071
19.440957,34.774780,-1.449585,3.177617,0.299377,-2.370471,11.402672
19.456810,45.799255,-2.655029,2.910588,-0.044907,-2.292034,11.460752
19.472684,54.092407,-2.639771,3.047917,-0.294587,-2.199227,10.918280
19.488700,60.310364,-2.189636,2.582524,-0.191003,-2.233356,9.990210
19.504643,58.364868,-1.281738,1.132939,-0.279619,-2.296824,8.963345
19.520571,53.611755,1.564026,-1.262690,-0.405956,-2.602787,8.375367
19.536229,45.471191,3.372192,-2.239253,-0.268242,-2.605781,8.071200
19.552035,34.912109,3.921509,-2.704646,-0.191003,-2.009421,8.387342
19.567781,28.366089,2.273560,-2.704646,-0.429307,-1.853146,9.216020
19.583510,25.070190,1.502991,-2.040889,-0.571212,-1.467548,10.080023
19.599181,26.931763,1.800537,-0.568416,-0.403561,-1.201102,10.836849
19.615250,31.059265,-0.656128,0.164006,-0.170046,-0.920286,11.186522
19.630771,38.307190,-1.502991,1.811956,-0.473016,-0.874182,11.081141
19.646292,43.884277,-1.731873,3.467534,-0.412542,-0.912502,10.420115
19.661839,46.005249,-2.960205,3.368352,-0.228724,-1.110690,9.642333
19.677391,43.640137,-1.937866,2.887700,-0.605341,-1.062191,9.000467
19.693175,37.879944,-1.533508,2.925847,-0.017364,-1.257385,8.613073
19.708945,30.052185,-1.625061,2.017949,-0.283810,-1.080753,8.671152
19.724785,22.941589,-1.983643,2.300237,-0.341290,-0.824485,9.184884
19.740606,18.646240,-0.732422,2.010320,-0.305964,-0.495769,10.008172
19.756499,18.722534,-0.968933,1.522039,-0.143701,-0.164658,10.548847
19.772411,22.438049,-1.472473,2.254460,-0.150886,-0.011975,10.869781
19.788299,27.206421,-0.923157,1.949285,-0.246687,0.048499,10.797930
19.804447,30.319214,-2.059937,2.643559,-0.003593,-0.052690,10.357845
19.820175,31.181335,-1.876831,1.552556,-0.323926,-0.153880,9.710590
19.835869,28.945923,-0.465393,0.980352,-0.342488,-0.307760,9.220809
19.851502,24.223328,0.465393,0.164006,-0.051493,-0.274230,8.958554
19.867243,18.035889,0.137329,-0.766780,-0.247885,-0.103585,9.071120
19.883044,13.053894,0.534058,-0.675227,-0.304766,0.069456,9.510607
19.898842,7.904053,0.473022,-0.774409,-0.162263,0.380209,10.195582
19.914371,10.673523,-0.282288,-0.537898,-0.258662,0.461041,10.426103
19.930355,13.084412,-0.076294,0.125859,-0.391586,0.502355,10.545255
19.946267,15.762329,-0.099182,0.026677,-0.355660,0.541873,10.352456
19.962202,17.364502,-0.656128,0.293706,-0.335901,0.338297,9.951290
19.977834,15.930176,-0.564575,0.896428,-0.311353,0.350272,9.468694
19.993855,12.069702,-0.488281,0.415776,-0.257465,0.237107,9.175902
20.009630,7.209778,-0.381470,0.080083,-0.241897,0.225731,9.210630
20.025421,2.914429,-0.144958,0.278447,-0.143701,0.311951,9.442348
20.041302,0.320435,-0.534058,0.591252,-0.185614,0.462239,9.812978
20.057452,0.007629,-0.877380,0.804875,-0.313748,0.584385,10.147083
20.073336,1.068115,-0.518799,0.888799,-0.280816,0.704136,10.318327
20.089171,3.059387,-0.709534,0.759099,-0.279619,0.649649,10.252464
20.105171,4.386902,-0.686646,0.637029,-0.267643,0.645458,9.954284
20.121066,4.226685,-0.549316,0.431035,-0.242496,0.493973,9.578865
20.136654,1.907349,-0.404358,-0.026729,-0.194595,0.347278,9.387862
20.152326,-1.693726,-0.221252,-0.225093,-0.155676,0.344284,9.341159
20.167980,-5.065918,-0.091553,-0.309016,-0.174238,0.367037,9.503422
20.183625,-7.362366,-0.160217,-0.232722,-0.220342,0.488584,9.780046
20.199267,-8.193970,1.853943,-0.186946,-0.259860,0.549657,10.025536
20.215020,-7.522583,-0.122070,-0.202205,-0.290995,0.553250,10.190193
20.231014,-6.126404,-0.152588,-0.057246,-0.316143,0.502954,10.148879
20.246589,-5.409241,-0.335693,-0.110652,-0.304167,0.403561,9.953686
20.262160,-5.706787,-0.366211,-0.309016,-0.226329,0.287402,9.699813
20.277764,-7.667542,-0.274658,-0.408198,-0.137714,0.160466,9.504021
20.293532,-10.383606,-0.068665,-0.270869,-0.125140,0.082029,9.447738
20.309356,-13.053894,-0.137329,-0.438716,-0.202978,0.135319,9.620179
20.325116,-14.816284,0.122070,-0.453975,-0.250878,0.205373,9.809984
20.341047,-13.687134,0.091553,-0.347163,-0.277223,0.240699,10.065653
20.356860,-14.923096,-0.190735,-0.293757,-0.288001,0.105381,10.113553
20.372677,-13.786316,-0.251770,-0.240352,-0.255668,0.049098,10.057869
20.388528,-12.893677,-0.236511,-0.362422,-0.147892,-0.031135,9.896804
20.404452,-12.931824,-0.144958,-0.598933,-0.207169,-0.155676,9.721967
20.420134,-13.992310,0.144958,-0.682856,-0.188009,-0.252675,9.618981
20.436469,-15.434265,0.259399,-0.301387,-0.208367,-0.290995,9.614790
20.453046,-16.967773,-0.022888,-0.553157,-0.295785,-0.319136,9.723165
20.468890,-17.929077,0.091553,-0.492122,-0.338895,-0.356858,9.859681
20.484869,-17.791748,0.221252,-0.759150,-0.277822,-0.503553,9.945902
20.500620,-17.013550,-0.450134,-0.156428,-0.166454,-0.450862,9.996197
20.516268,-16.288757,-0.427246,-0.041987,-0.245490,-0.468825,10.002185
20.532632,-15.411377,-0.381470,-0.232722,-0.184417,-0.503553,9.896804
20.548750,-15.495300,-0.022888,-0.431086,-0.162861,-0.639470,9.735140
20.564388,-16.212463,-0.152588,-0.453975,-0.157473,-0.715512,9.682449
20.580004,-16.693115,-0.122070,-0.682856,-0.257465,-0.861608,9.705801
20.595568,-17.326355,0.343323,-0.972773,-0.371827,-0.925076,9.786633
20.611347,-17.372131,0.793457,-1.285579,-0.305964,-0.947829,9.777652
20.627176,-17.295837,0.564575,-1.308467,-0.280217,-0.783171,9.871058
20.642976,-16.983032,0.244141,-1.094844,-0.309556,-1.005309,9.892612
20.658722,-16.258240,0.564575,-0.957515,-0.325124,-0.986748,9.937519
20.674583,-15.350342,0.213623,-0.667598,-0.249681,-1.090931,9.843514
20.690485,-15.075684,-0.198364,-0.278499,-0.225132,-1.210682,9.718973
20.706390,-14.984131,-1.060486,0.453923,-0.282612,-1.286126,9.677659
20.722109,-14.778137,-0.648499,0.339482,-0.333506,-1.287922,9.699813
20.737947,-15.266418,-0.549316,0.179265,-0.281415,-1.297502,9.692628
20.753876,-17.448425,-0.679016,-0.003840,-0.222138,-1.386716,9.770466
20.769593,-15.617371,-0.602722,0.499700,-0.141905,-1.441802,9.836928
20.786299,-15.266418,-1.144409,0.545476,-0.204774,-1.404080,9.852496
20.802278,-14.289856,-0.755310,0.102971,-0.317340,-1.474733,9.838125
20.818175,-11.779785,-0.091553,0.019048,-0.216151,-1.550775,9.831539
20.833848,-13.427734,0.022888,-0.484492,-0.167651,-1.638193,9.732745
20.849961,-12.725830,0.030518,-0.522639,-0.184417,-1.643582,9.708795
20.865652,-12.313843,0.709534,-0.926997,-0.256866,-1.752555,9.653709
20.881386,-12.229919,0.732422,-1.598384,-0.286205,-1.771117,9.666882
20.896995,-12.077332,0.923157,-1.331355,-0.256866,-1.602268,9.660894
20.912638,-11.917114,0.518799,-0.873591,-0.241897,-1.795067,9.747714
20.928342,-11.169434,0.259399,-0.751521,-0.362845,-1.841770,9.706998
20.944235,-10.482788,0.282288,-0.492122,-0.340692,-1.905238,9.740528
20.960141,-9.735107,-1.922607,-0.202205,-0.304766,-1.960922,9.717177
20.976027,-9.048462,-0.640869,0.141118,-0.169448,-1.943558,9.651913
20.991879,-8.865356,-0.450134,0.156377,-0.364642,-1.977089,9.621376
21.007760,-8.926392,-0.343323,-0.057246,-0.153880,-1.983675,9.636345
21.023684,-8.697510,-0.404358,0.019048,-0.205972,-2.026186,9.645327
21.039762,-8.331299,-0.480652,0.125859,-0.131726,-2.126777,9.607006
21.055844,-7.972717,-0.396729,-0.171687,-0.210163,-2.180067,9.648919
21.072271,-7.057190,-0.320435,-0.377681,-0.277822,-2.196233,9.651314
21.088069,-6.256104,0.434875,-0.804927,-0.218546,-2.238744,9.684844
21.103716,-5.409241,0.625610,-1.079585,-0.213157,-2.183659,9.724961
21.119321,-4.432678,0.511169,-1.155879,-0.286205,-2.212998,9.701610
21.135391,-3.395081,0.671387,-1.071956,-0.334105,-2.240541,9.668678
21.151201,-2.349854,0.762939,-1.094844,-0.331111,-2.277065,9.598623
21.166868,-1.701355,0.511169,-0.804927,-0.302371,-2.239942,9.550723
21.182463,-1.434326,0.076294,-0.370051,-0.325723,-2.293830,9.559705
21.198133,-0.907898,-0.381470,-0.202205,-0.353265,-2.284250,9.554914
21.213715,-0.656128,-0.167847,0.087712,-0.377814,-2.263294,9.593834
21.229271,-0.137329,-0.335693,0.232671,-0.327519,-2.274670,9.648320
21.245064,0.938416,-0.602722,0.591252,-0.302371,-2.226171,9.683048
21.260907,1.785278,-0.709534,0.728582,-0.305365,-2.217788,9.632752
21.276713,2.670288,-0.839233,0.774358,-0.307161,-2.213597,9.636345
21.292464,3.486633,-0.900269,0.705693,-0.236508,-2.241738,9.603414
21.308255,4.158020,-0.602722,0.614141,-0.195194,-2.216591,9.587846
21.324314,4.531860,-0.335693,0.179265,-0.196392,-2.202220,9.590241
21.340183,4.699707,-0.228882,0.087712,-0.241298,-2.181863,9.608803
21.355832,5.073547,0.312805,-0.141169,-0.222737,-2.138752,9.636345
21.371612,5.378723,0.129700,-0.362422,-0.256267,-2.102827,9.683647
21.387272,5.844116,0.106812,-0.202205,-0.291594,-2.078278,9.729153
21.402899,6.385803,0.053406,-0.072505,-0.344883,-2.057322,9.735140
21.418580,6.683350,-0.061035,0.049565,-0.377814,-2.019600,9.717177
21.434221,6.828308,-0.160217,0.164006,-0.335303,-2.013014,9.654308
21.449899,6.790161,-0.564575,0.286077,-0.344883,-1.978286,9.624969
21.465443,6.332397,-0.709534,0.400518,-0.350870,-1.968706,9.592636
21.481044,3.944397,-0.770569,0.682805,-0.336500,-1.929188,9.760886
21.496569,5.409241,-0.747681,0.675176,-0.314945,-1.902244,9.645327
21.512201,5.264282,-0.846863,0.698064,-0.265248,-1.904041,9.728554
21.528046,5.516052,-0.823975,0.804875,-0.223336,-1.871708,9.782441
21.543881,7.736206,-0.961304,0.621770,-0.240699,-1.862128,9.792022
21.560627,6.462097,-0.633240,0.446294,-0.271236,-1.855541,9.729153
21.578003,6.469727,-0.129700,0.225042,-0.254471,-1.974095,9.706400
21.593624,6.446838,0.038147,-0.232722,-0.249681,-1.832789,9.674067
21.609249,6.256104,0.274658,-0.316646,-0.261057,-1.761537,9.668678
21.625445,5.828857,0.335693,-0.438716,-0.244292,-1.760339,9.705801
21.641176,5.691528,0.160217,-0.476863,-0.290396,-1.751957,9.718973
21.656842,5.752563,0.076294,-0.354792,-0.181423,-1.755549,9.746516
21.672449,5.531311,0.137329,-0.247981,-0.354463,-1.714235,9.709394
21.688096,5.592346,-0.022888,-0.118281,-0.334704,-1.675316,9.732146
21.703849,5.661011,-0.045776,0.034307,-0.327519,-1.665736,9.700412
21.720024,5.493164,-0.228882,0.118230,-0.307161,-1.654958,9.718973
21.735756,5.500793,-0.442505,0.202153,-0.324525,-1.660946,9.712986
21.751546,5.424500,-0.633240,2.315495,-0.294587,-1.649570,9.716578
21.767144,5.187988,-0.595093,0.492070,-0.274230,-1.619033,9.724362
21.782778,5.149841,-0.679016,0.606511,-0.288600,-1.554966,9.756695
21.798329,5.065918,-0.534058,0.507329,-0.288600,-1.559158,9.754300
21.814279,4.867554,-0.404358,0.339482,-0.271236,-1.215472,9.768071
21.830196,2.807617,-0.488281,-0.370051,-0.368833,-1.880689,10.741647
21.846139,10.948181,-0.579834,0.057195,-0.335303,-1.156196,11.365549
21.862127,21.575928,-0.991821,1.117681,-0.572410,-1.323847,10.570403
21.877806,24.116516,-1.449585,1.827214,-0.465831,-1.016686,9.953087
21.893456,20.240784,-1.800537,0.514959,-0.365240,-1.348396,10.102177
21.909159,21.659851,1.068115,-0.812556,-0.278421,-1.126258,10.884151
21.925191,31.028748,2.243042,-0.232722,0.148491,-1.052611,10.467417
21.941197,31.166077,-1.113892,-1.094844,0.092208,-0.901725,10.145885
21.957203,32.104492,-1.220703,-1.857783,-0.530497,-0.834664,10.094393
21.973061,33.142090,2.799988,-1.544978,-0.434696,-0.361648,10.224921
21.989002,34.240723,3.692627,-2.704646,0.026345,-0.389191,10.285396
22.004639,36.926270,1.266479,-3.887202,0.120350,-0.418530,10.342278
22.020257,38.040161,3.654480,-3.574397,-0.372426,-0.238304,10.153669
22.035965,38.429260,3.257751,-4.116084,-0.432900,-0.359852,10.378801
22.051834,41.305542,2.540588,-4.940059,-0.214953,0.218546,10.247674
22.067406,43.586731,2.113342,-5.046870,-0.173040,0.022154,10.335690
22.083700,46.371460,2.922058,-4.917171,-0.608335,0.227527,10.339283
22.099836,49.858093,2.929688,-5.016353,-0.416135,0.247885,10.019548
22.115560,49.606323,2.540588,-5.657222,-0.305365,0.258662,9.817768
22.131226,49.194336,2.944946,-5.466487,-0.427511,0.471220,9.994401
22.146800,49.644470,2.319336,-6.351497,-0.225132,0.444875,10.156663
22.162647,52.909851,2.609253,-7.167842,-0.440085,0.714913,10.345271
22.178292,54.794312,2.540588,-7.450130,-0.259860,0.745450,10.261445
22.193915,56.518555,2.029419,-8.045222,-0.201182,0.822689,10.227915
22.209573,59.074402,1.319885,-7.755305,-0.265248,1.156196,10.142293
22.225384,60.386658,2.975464,-7.205989,-0.215552,1.053809,9.884829
22.241226,61.576843,3.021240,-6.832149,-0.221539,1.406475,9.921951
22.256936,61.470032,2.342224,-7.656123,-0.214953,1.931583,10.044696
22.272700,64.857483,3.166199,-7.961299,-0.088616,1.544189,9.801601
22.288532,65.864563,2.548218,-8.327510,-0.082628,2.274071,9.835731
22.304181,66.940308,1.510620,-9.410884,-0.435894,2.132166,9.957278
22.319800,71.060181,2.494812,-9.464290,-0.549058,1.683699,9.638142
22.335569,71.281433,3.898621,-9.769465,-0.471220,2.205813,9.542939
22.351187,74.386597,3.547668,-11.158015,-0.424517,2.760859,9.726158
22.366780,77.781677,1.525879,-12.355830,-0.439486,2.596201,9.871655
22.382373,81.687927,0.419617,-12.889888,-0.399968,2.584226,9.618382
22.397907,87.493896,1.564026,-11.684443,-0.644859,3.090773,9.317209
22.413588,90.080261,6.225586,-11.302974,-0.739462,3.241060,9.116626
22.429280,93.177795,6.858826,-10.509517,-0.319735,3.190166,8.381954
22.445134,90.492249,6.149292,-9.990718,-0.301772,2.526147,7.725718
22.460950,82.824707,7.049561,-6.992366,-0.542472,2.335144,6.630596
22.476760,68.656921,8.949280,-5.680110,-0.576601,2.069297,6.613232
22.492668,60.073853,9.033203,-5.405452,-0.293989,2.121987,6.396482
22.508576,49.987793,11.528015,-4.306819,-0.622106,2.165696,6.817407
22.524507,33.187866,11.711121,0.637029,-0.429906,2.652484,6.192307
22.540404,26.573181,14.137268,2.361272,-1.095123,3.580554,7.229351
22.556343,21.141052,14.099121,5.229924,-1.242416,4.977449,8.670553
22.572217,32.379150,13.679504,6.198857,-0.729283,5.725294,11.106887
22.588137,42.480469,7.865906,7.137273,-1.172961,6.582711,10.033319
22.603891,62.362671,12.474060,11.341069,-1.399889,6.080356,8.948975
22.619638,76.881409,22.994995,16.757940,-2.152524,4.945715,7.620337
22.635293,82.336426,27.992249,20.336126,-1.129252,4.172723,7.019786
22.650840,79.048157,32.463074,22.396063,-0.861608,4.345763,7.134748
22.666384,71.685791,33.241272,25.272345,-0.784369,4.307443,6.916202
22.681933,68.382263,34.706116,29.003119,-0.181423,5.103188,7.394607
22.697582,71.632385,33.096313,37.113163,-0.829275,6.113287,7.980788
22.713204,81.596375,36.911011,43.125126,-1.601071,7.101831,7.408977
22.728960,95.405579,43.617249,47.756168,-1.425635,7.068900,8.083175
22.744749,104.827881,45.066833,51.380131,-0.913700,6.042634,7.099421
22.760637,110.054016,44.387817,53.417179,-1.229843,5.370831,6.212665
22.777314,113.319397,48.049927,53.531620,-0.999322,0.907712,4.034993
22.793897,83.541870,55.130005,49.694035,0.293989,-5.100194,-2.977025
22.809922,49.194336,63.484192,60.977909,1.613644,-5.679789,-2.254328
22.825645,-53.215027,70.869446,58.513615,0.537083,3.256628,0.026928
22.841406,-67.962646,57.723999,61.695072,0.815504,1.040636,3.758368
22.857102,-100.631714,44.319153,56.415531,-0.572410,6.534811,6.153987
22.873066,-102.943420,32.051086,52.249882,0.462838,11.792478,9.066929
22.888787,-70.793152,5.172729,54.820988,-3.584745,19.617605,11.849942
22.904497,-22.720337,7.553101,51.975224,-1.986070,19.617605,17.238735
22.920232,95.504761,-14.663696,81.127144,-10.522518,19.617605,5.469011
22.935914,170.333862,49.263000,67.363716,1.460962,14.895824,12.740291
22.951476,219.139099,36.628723,60.207340,0.073048,11.744577,13.294139
22.967039,185.081482,14.190674,33.977482,-4.108656,0.331111,11.427221
22.982551,184.288025,18.051147,5.351995,-1.035846,8.083191,4.431968
22.998182,132.339478,29.403687,-15.682246,-0.564027,10.700349,-0.068873
23.014502,73.677063,33.615112,-14.034297,-0.141306,5.281018,-1.329850
23.030337,31.036377,44.570923,-3.803279,-0.395777,3.148253,-1.287339
23.046054,-7.827759,51.223755,7.831548,-0.097597,6.753955,-1.525045
23.061681,-49.644470,51.589966,5.908940,-0.474214,10.546469,-1.909445
23.077476,-73.585510,44.357300,-5.718257,0.337698,9.693243,-0.677208
23.093378,-67.687988,34.011841,-5.748775,0.389191,6.036048,-1.183156
23.109057,-53.863525,36.979675,19.023870,-0.490979,3.714675,-0.789774
23.124725,-45.753479,49.285889,59.398624,-2.045945,6.041437,-0.725707
23.140428,-81.771851,38.513184,111.537910,-5.856421,19.617605,3.080578
23.157095,-59.371948,43.777466,33.519718,-1.331631,5.198988,2.697974
23.172903,-99.937439,6.797791,14.858220,0.753832,10.429711,3.111115
23.188657,-58.036804,16.075134,24.509405,1.392704,10.556048,3.554792
23.204321,-48.271179,33.760071,19.977545,1.449586,9.910591,5.710908
23.220048,-30.738831,20.507812,15.560124,1.663940,8.848400,6.337206
23.235848,-31.166077,19.599915,11.058782,0.434097,7.616162,5.309742
23.251519,-34.492493,11.344910,5.825017,0.280217,7.932305,4.966656
23.267098,-37.101746,0.923157,-4.817988,0.793949,6.118077,4.823554
23.282707,-47.798157,-2.159119,-15.857722,-0.568817,8.601712,5.771981
23.298291,-41.496277,-10.467529,-21.694208,0.158071,6.970705,5.583374
23.313994,-50.346375,-11.199951,-20.275141,0.486189,8.140672,5.321119
23.329912,-42.915344,1.380920,-19.199396,-1.025667,7.688013,5.659415
23.345923,-43.457031,-1.609802,-12.027766,-0.544867,8.388556,6.473722
23.361906,-36.117554,-0.022888,-10.890986,-0.374222,7.572453,6.015076
23.377892,-38.330078,-0.320435,-8.449580,-0.991538,7.840096,6.664126
23.393872,-34.751892,-1.220703,-5.382564,-0.731678,7.474257,6.691070
23.409799,-31.082153,-0.595093,-0.095393,-0.538879,7.361093,6.656941
23.425818,-28.976440,1.846313,4.001592,-0.555046,7.134763,6.350977
23.441532,-28.839111,2.372742,4.886601,0.092208,6.942563,6.171949
23.457442,-30.715942,0.259399,3.620122,0.135917,7.140152,6.447976
23.473393,-29.846191,-0.541687,0.926946,-0.076641,7.095245,6.622812
23.489260,-27.931213,0.457764,-0.553157,-0.479603,7.200027,6.929374
23.504958,-23.521423,0.205994,0.217412,0.225731,6.935378,6.906023
23.520599,-22.552490,1.205444,-1.003291,-0.173639,6.740782,7.001824
23.536263,-21.827698,-0.350952,-2.529170,-0.008383,6.695876,6.904227
23.551832,-21.011353,-0.717163,-2.025630,-0.308359,6.618637,6.838364
23.567450,-20.835876,0.167847,-1.697566,-0.222737,6.689290,6.954522
23.583037,-17.738342,-0.556946,-1.827266,-0.135917,6.631809,7.073076
23.598730,-15.815735,-0.221252,-2.170588,-0.268242,6.613846,7.177259
23.614352,-15.014648,-0.221252,0.347112,-0.501158,6.738388,7.167679
23.630198,-13.206482,-0.198364,-0.179316,-0.422721,6.606661,7.103014
23.646051,-12.245178,0.297546,0.690435,-0.243693,6.371351,7.073674
23.661866,-12.084961,-0.129700,0.560735,-0.062271,6.249804,7.128760
23.677723,-11.940002,-0.061035,0.026677,-0.228724,6.397696,7.207197
23.693582,-10.177612,0.122070,-0.331904,-0.174836,6.503675,7.369459
23.709555,-7.492065,-0.663757,-0.240352,-0.314346,6.539002,7.428137
23.725898,-5.279541,-0.541687,-0.103022,-0.330513,6.490503,7.346108
23.741622,-3.097534,-0.442505,0.377629,-0.153281,6.345604,7.194024
23.757393,-2.525330,-0.434875,0.072454,-0.145497,6.228847,7.219770
23.773008,-1.937866,-0.167847,-0.339534,-0.296982,6.304889,7.252103
23.789018,-0.694275,-0.205994,-0.286128,-0.184417,6.359974,7.278449
23.804921,0.968933,-0.205994,-0.545527,-0.161065,6.444998,7.408977
23.820785,3.250122,-0.289917,-0.774409,-0.074844,6.425838,7.393409
23.836476,5.485535,-0.144958,0.072454,-0.329315,6.315068,7.271862
23.852203,6.652832,1.945496,0.637029,-0.268841,6.324049,7.231746
23.867852,7.362366,-0.846863,1.193975,-0.232317,6.356382,7.174864
23.883416,7.949829,-0.541687,1.270269,-0.052690,6.437214,7.255696
23.899131,9.346008,0.137329,0.400518,0.046104,6.455775,7.264078
23.914728,10.955811,-0.396729,-0.438716,-0.004790,6.565946,7.286232
23.930600,13.137817,-0.358582,-1.140620,-0.593366,6.652167,7.198814
23.946459,15.075684,0.053406,-0.515010,-0.276625,6.549181,6.873690
23.962357,15.464783,-0.846863,0.446294,-0.420326,6.504873,6.931769
23.978269,15.243530,-0.663757,1.544927,-0.252675,6.501879,6.950930
23.994181,15.907288,-0.343323,2.239202,-0.252675,6.648574,7.025774
24.010090,17.395020,-0.595093,1.895879,-0.010778,6.821016,7.150914
24.026003,20.248413,-0.480652,1.613591,-0.250280,6.883286,7.037749
24.041640,22.468567,-0.411987,0.926946,0.133522,6.757547,6.865906
24.057400,22.666931,-0.854492,0.019048,0.005389,6.716832,6.704841
24.073085,22.666931,-0.488281,-0.782039,-0.011975,6.738986,6.635984
24.088779,22.270203,-0.610352,-0.492122,-0.247286,6.994056,6.721606
24.104521,23.628235,-0.564575,-0.263240,-0.335303,7.149133,6.758729
24.120289,26.123047,-0.679016,0.301335,-0.465831,7.216194,6.720409
24.135863,28.198242,-0.251770,1.697515,-0.180824,7.129973,6.547369
24.151416,28.991699,0.000000,2.742742,-0.231718,7.023993,6.275534
24.166931,28.312683,-0.556946,2.849553,-0.252076,7.149133,6.295293
24.182527,27.717590,-0.808716,2.620671,-0.041314,7.403006,6.331218
24.198169,29.258728,-0.274658,1.796697,-0.061073,7.435937,6.338403
24.213822,30.929565,-0.556946,1.491521,-0.100591,7.602990,6.321638
24.229513,33.103943,-0.610352,1.003240,-0.246687,7.449708,6.034834
24.245198,33.470154,-0.785828,0.659917,0.120948,7.550299,5.885146
24.260916,33.096313,-0.663757,1.430486,-0.358654,7.584428,5.849819
24.276802,31.311035,-0.076294,1.850103,-0.141306,7.664661,5.730068
24.292592,34.004211,-0.144958,1.979802,-0.216151,7.746691,5.750426
24.308313,34.126282,-0.816345,2.284978,-0.050894,7.873028,5.684563
24.324148,35.812378,-0.526428,2.223943,0.010179,7.786209,5.574392
24.339881,36.361694,-0.160217,2.201055,0.016765,8.067024,5.551640
24.356322,37.750244,-0.122070,1.575444,-0.128134,7.974217,5.371414
24.372088,38.536072,-2.754211,2.437566,-0.267643,10.041718,5.370217
24.387802,45.860291,2.220154,3.154729,-0.220941,8.139474,4.582854
24.403515,35.369873,1.800537,3.658269,-0.160466,9.120833,4.760684
24.419160,32.447815,1.472473,5.924199,-0.137714,8.235274,4.317007
24.434754,26.573181,3.189087,7.678960,-0.096400,8.281978,3.879916
24.450384,20.011902,2.326965,6.542180,0.014969,8.565188,4.176898
24.465981,17.890930,2.449036,5.306218,0.218546,8.677155,3.917039
24.481636,15.487671,3.761292,3.139470,0.038919,9.309441,3.511682
24.497462,10.543823,0.679016,2.277349,0.076641,8.943003,3.455997
24.513264,5.851746,0.350952,0.026677,0.163460,8.598120,3.412288
24.529049,-3.585815,-1.380920,-0.270869,0.034728,8.584948,3.618859
24.544879,-9.635925,-0.762939,-1.560237,0.304766,8.528665,3.731425
24.560805,-13.633728,-1.487732,-2.315547,-0.041314,8.441845,4.203243
24.576719,-15.495300,-2.029419,-3.345515,0.032932,8.502319,4.497831
24.592679,-14.610291,-1.747131,-3.856685,-0.014370,8.423284,4.949891
24.608890,-11.260986,-2.838135,-3.681209,-0.279619,8.529263,4.796011
24.624593,-10.421753,-0.907898,-3.437068,-0.196990,8.281978,4.854090
24.640248,-9.170532,-1.678467,-2.468135,-0.113763,8.303533,4.810381
24.655908,-9.933472,-0.427246,-1.178767,-0.417931,8.178393,4.852293
24.671503,-10.711670,0.190735,0.461553,-0.107776,8.236472,4.993600
24.687038,-11.299133,0.373840,0.881169,-0.212558,8.226294,4.945700
24.702572,-10.978699,0.709534,1.331304,-0.053888,8.316107,5.094790
24.718124,-9.017944,0.198364,0.675176,0.061672,8.131091,5.087605
24.733732,-8.079529,0.297546,0.019048,0.065264,8.205935,5.152869
24.749281,-7.286072,-0.122070,-0.804927,-0.071851,8.093369,5.092394
24.764941,-7.011414,-0.755310,-1.590754,0.091011,8.182584,5.118740
24.780693,-6.462097,-0.831604,-1.483943,-0.241897,8.114326,5.118141
24.796415,-5.889893,-0.511169,-1.056697,-0.085622,8.146060,5.163646
24.812153,-4.875183,-0.389099,-0.324275,-0.263452,8.108937,5.264237
24.827967,-3.562927,0.000000,0.560735,-0.143701,8.075407,5.301959
24.843820,-2.082825,0.152588,0.698064,-0.051493,8.025710,5.222923
24.859855,-1.174927,0.122070,0.850652,-0.019759,8.091574,5.195979
24.875740,-0.946045,0.114441,0.354741,0.002994,8.045469,5.175023
24.891679,-0.625610,-0.213623,-0.263240,0.022154,8.125703,5.183405
24.907610,0.000000,-0.480652,-0.637080,-0.101190,8.141869,5.240287
24.923293,1.029968,-0.503540,-0.545527,-0.095202,8.132888,5.231905
24.938933,1.907349,-0.633240,-0.316646,-0.119751,8.097561,5.231306
24.954629,3.120422,-0.274658,0.080083,-0.122146,8.058642,5.195380
24.970421,3.387451,-0.221252,0.408147,-0.102986,8.071216,5.170831
24.986045,4.081726,-0.312805,0.629399,-0.076042,8.084389,5.163646
25.001717,4.493713,-0.068665,0.659917,-0.041913,8.124505,5.190590
25.017314,5.722046,-0.144958,0.377629,0.101190,8.425080,5.611515
25.032907,7.278442,0.564575,0.278447,-0.039518,8.193362,5.118740
25.048588,7.102966,-0.022888,0.408147,-0.108375,8.293953,4.891213
25.064490,6.858826,-0.274658,0.820134,-0.164658,8.192164,4.971446
25.080324,5.920410,0.335693,1.232122,-0.013173,8.141869,4.758888
25.096043,4.341125,-0.038147,1.255010,-0.064666,8.333470,4.825350
25.112006,3.280640,0.297546,1.071904,-0.028141,8.426876,4.792418
25.127880,2.593994,-0.114441,0.408147,0.123344,8.378976,4.715777
25.143796,1.304626,-0.328064,-0.171687,-0.040715,8.350236,4.681050
25.159636,-0.228882,-0.465393,-0.713374,-0.007185,8.292755,4.631952
25.175724,-2.296448,-0.518799,-0.926997,-0.097597,8.292755,4.706796
25.191567,-3.547668,-0.823975,-0.766780,-0.105980,8.290958,4.828343
25.207237,-4.035950,-0.556946,-0.721003,0.005389,8.241861,4.925342
25.223039,-2.197266,-0.465393,-0.667598,-0.065863,8.235274,5.063056
25.238734,-2.960205,-0.511169,-0.682856,-0.045505,8.154443,5.151671
25.254464,-1.747131,-0.518799,-0.766780,-0.115560,8.137677,5.072636
25.270018,-1.502991,-0.427246,-0.606562,-0.117356,8.207732,5.131313
25.285607,-0.602722,-0.205994,-0.019099,-0.131726,8.097561,5.059463
25.301164,-0.671387,-0.106812,0.278447,-0.068857,8.173603,5.103771
25.316811,0.061035,-0.274658,0.560735,-0.106578,8.150251,5.106166
25.332411,0.686646,-0.030518,0.514959,-0.018561,8.182584,5.125925
25.348109,1.808167,-0.251770,0.354741,-0.038320,8.189770,5.091197
25.363899,2.426147,-0.175476,0.255559,-0.070054,8.200547,5.043895
25.379680,2.906799,-0.236511,0.202153,-0.086221,8.201145,4.953483
25.395418,2.525330,-0.160217,0.400518,-0.092208,8.228688,4.899595
25.411217,1.609802,-0.045776,0.637029,-0.104782,8.238269,4.867861
25.427060,1.228333,0.000000,0.568364,-0.052690,8.229886,4.882231
25.442839,0.701904,-0.007629,0.408147,-0.010778,8.267009,4.892410
25.459048,0.350952,-0.076294,0.133489,-0.148491,8.266410,4.893608
25.475423,0.091553,-0.358582,-0.263240,-0.012574,8.252040,4.891811
25.491229,-0.236511,-0.511169,-0.469233,-0.037123,8.251441,4.910373
25.506836,-0.801086,-0.473022,-0.484492,-0.053888,8.227490,4.927138
25.522497,-1.319885,-0.358582,-0.499751,-0.083227,8.235274,4.940909
25.538504,-1.296997,-0.404358,-0.164058,-0.094005,8.234676,5.009168
25.554302,-1.266479,-0.373840,-0.057246,-0.070653,8.189171,5.051679
25.570039,-0.724792,-0.251770,-0.125911,-0.091011,8.192164,5.081018
25.585703,-0.259399,-0.328064,-0.072505,-0.073647,8.170609,5.067845
25.601272,0.442505,-0.267029,-0.148799,-0.072449,8.167017,5.074432
25.616868,0.862122,-0.221252,-0.026729,-0.092208,8.184979,5.053475
25.632546,1.129150,-0.030518,0.156377,-0.073647,8.210726,5.039704
25.648306,1.464844,-0.129700,0.347112,-0.079036,8.226294,5.003778
25.664048,1.525879,-0.129700,0.469182,-0.085622,8.219707,4.972643
25.679753,1.495361,-0.221252,0.370000,-0.053888,8.214917,4.957076
25.695678,1.388550,-0.099182,0.286077,-0.057480,8.226294,4.943903
25.712228,1.243591,-0.045776,0.209783,-0.041913,8.230485,4.922947
25.728958,1.029968,-0.274658,-0.034358,-0.058079,8.246052,4.884626
25.745124,0.579834,-0.205994,-0.141169,-0.047302,8.274793,4.890015
25.760859,-0.015259,-0.297546,0.003789,-0.053888,8.233479,4.894207
25.776451,-0.495911,-0.259399,-0.003840,-0.059277,8.231682,4.928336
25.792072,-0.907898,-0.434875,-0.148799,-0.046703,8.238269,4.966656
25.808036,-0.862122,-0.434875,-0.270869,-0.052092,8.219707,4.990606
25.823778,-0.694275,-0.511169,-0.400569,-0.040715,8.198152,4.987612
25.839408,-0.488281,-0.411987,-0.316646,-0.074844,8.198750,5.030124
25.855179,-0.160217,-0.320435,-0.202205,-0.080233,8.179590,4.995396
25.870965,-0.061035,-0.289917,-0.034358,-0.080233,8.197553,5.015155
25.886627,0.167847,-0.228882,0.072454,-0.076042,8.193362,5.026531
25.902218,0.549316,-0.167847,0.217412,-0.059875,8.189770,5.018149
25.917818,0.869751,-0.282288,0.232671,-0.058678,8.195757,5.026531
25.933555,1.304626,-0.183105,0.118230,-0.045505,8.207133,4.983421
25.949780,1.335144,-0.198364,0.110601,-0.063468,8.201145,4.977434
25.965868,1.312256,-0.160217,0.057195,-0.066462,8.222701,4.953483
25.981940,1.113892,-0.198364,0.240300,-0.077838,8.242459,4.942706
25.997900,0.709534,-0.175476,0.316594,-0.077239,8.243657,4.886423
26.013567,0.534058,-0.228882,0.164006,-0.061073,8.226892,4.923545
26.029155,0.205994,-0.267029,-0.072505,-0.036524,8.229886,4.932527
26.045147,-0.030518,-0.289917,-0.118281,-0.034728,8.219109,4.932527
26.061153,-0.061035,-0.282288,-0.331904,-0.048499,8.237071,4.946897
26.077421,-0.282288,-0.465393,-0.263240,-0.067659,8.231083,4.958273
26.093293,-0.205994,-0.427246,-0.232722,-0.087418,8.181387,4.962465
26.109279,-0.343323,-0.343323,-0.156428,-0.064067,8.205935,4.981625
26.124957,-0.411987,-0.228882,0.011418,-0.089813,8.204739,5.024735
26.140703,-0.053406,-0.282288,-0.049617,-0.041913,8.186775,5.020544
26.156359,0.106812,-0.320435,-0.057246,-0.088616,8.220904,5.024735
26.172124,0.320435,-0.175476,-0.041987,-0.071252,8.198750,5.040303
26.187807,0.740051,-0.183105,0.026677,-0.064067,8.204140,5.000785
26.203462,0.854492,-0.205994,0.102971,-0.093406,8.212522,5.001982
26.219031,1.007080,-0.267029,0.247930,-0.065863,8.195757,4.989408
26.234596,0.991821,-0.152588,0.232671,-0.057480,8.235873,4.956477
26.250169,0.915527,-0.144958,0.339482,-0.056882,8.237670,4.966057
26.265807,0.785828,-0.114441,0.133489,-0.047302,8.233479,4.926539
26.281620,0.831604,-0.282288,0.041936,-0.046104,8.225096,4.925941
26.297505,0.457764,-0.343323,0.011418,-0.063468,8.240664,4.925342
26.313470,0.335693,-0.328064,-0.072505,-0.070653,8.208331,4.938514
26.330415,0.061035,-0.350952,-0.103022,-0.056283,8.194559,4.938514
26.346660,-0.205994,-0.350952,-0.110652,-0.049697,8.226294,4.954681
26.362287,-0.358582,-0.129700,-0.026729,-0.055085,8.223898,4.962465
26.378069,-0.183105,-0.411987,-0.179316,-0.088017,8.202343,4.978032
26.393975,-0.259399,-0.228882,-0.148799,-0.049098,8.180788,4.979230
26.409874,0.038147,-0.404358,-0.148799,-0.067061,8.222102,5.136104
26.425646,0.045776,-0.320435,-0.034358,-0.077239,8.202942,4.861874
26.441361,0.396729,-0.221252,0.102971,-0.079036,8.206534,5.010964
26.457044,0.549316,-0.205994,0.072454,-0.078437,8.200547,4.987612
26.472740,0.679016,-0.183105,0.080083,-0.073647,8.196955,4.996593
26.488489,0.656128,-0.167847,0.171636,-0.063468,8.213719,4.998989
26.504104,0.755310,-0.198364,0.209783,-0.053289,8.213120,4.981026
26.519686,0.793457,-0.152588,0.164006,-0.053888,8.216713,4.980427
26.535229,0.785828,-0.236511,-0.019099,-0.070054,8.226892,4.966057
26.550807,0.648499,-0.205994,-0.011470,-0.083227,8.255632,4.948094
26.566398,0.465393,-0.099182,0.041936,-0.068857,8.231083,4.934323
26.582554,0.442505,-0.213623,0.003789,-0.029938,10.903925,5.312736
26.598329,-9.819031,-0.511169,0.896428,-0.506547,10.653646,11.357765
26.613981,44.700623,2.037048,-6.259944,-0.359253,13.154645,10.101578
26.629658,117.042542,-2.037048,-8.205440,0.829874,11.938574,7.243122
26.645544,110.542297,-2.548218,-9.784724,0.115560,9.718989,6.333014
26.661260,121.650696,-0.152588,-10.227229,0.393382,8.289163,5.645644
26.676944,123.641968,-4.486084,-12.058284,-0.669408,9.416019,4.940310
26.692551,152.122498,-3.608704,-12.760188,-0.900527,8.793314,5.214540
26.708117,159.683228,-2.624512,-12.012507,0.404758,9.027428,5.386982
26.723802,175.659180,-4.615784,-9.334590,-1.208287,6.952742,3.913446
26.739475,184.967041,-2.876282,-4.787471,0.984353,6.701863,5.054074
26.755141,201.210022,-1.808167,-0.133540,-0.460443,4.977449,2.155502
26.770733,189.460754,-1.953125,-1.369502,-0.423320,6.315667,0.669991
26.786340,187.850952,1.022339,3.002141,0.856219,0.963397,0.428094
26.801899,137.001038,9.849548,7.122014,-0.310754,-0.887355,-0.080848
26.817532,74.264526,10.162354,7.831548,-0.628094,1.880090,-0.702355
26.833819,67.321777,14.549255,7.328008,0.649050,7.514374,0.629276
26.850069,90.141296,18.074036,7.976506,0.208965,9.763297,0.815488
26.866030,114.624023,16.113281,10.074590,1.263373,15.479012,10.727277
26.881776,118.545532,27.580261,31.177496,4.164340,19.617605,-6.861747
26.897786,67.825317,6.149292,-1.697566,0.771196,10.600955,5.187596
26.913533,142.883301,3.768921,-9.166743,1.406475,-0.302371,-8.823268
26.929273,112.899780,-9.178162,-15.468623,-0.315544,10.340497,-17.358519
26.944854,74.516296,40.138245,-10.250117,-11.651172,19.617605,-19.817604
26.960470,87.173462,81.352234,8.068059,2.572251,-4.427194,-0.825100
26.976243,84.060669,-7.476807,-24.410273,6.688092,9.035212,-0.486804
26.992025,66.734314,-11.482239,-14.148738,-4.546945,9.716595,-6.985090
27.007828,85.334778,41.992188,6.946538,-1.816024,8.108338,-3.830850
27.023585,82.504272,28.297424,1.148198,1.917213,6.119275,-2.530354
27.039251,87.013245,3.860474,-7.297542,0.275427,7.532935,-5.542690
27.054861,71.372986,9.201050,-3.147151,0.586181,6.816226,-4.982854
27.070446,79.147339,4.417419,-2.391841,-0.446671,8.835227,-5.060692
27.085977,59.867859,6.942749,2.269719,0.938249,4.716392,-5.829494
27.101614,56.709290,-4.196167,0.202153,0.689766,8.067623,-6.774329
27.117205,53.909302,-3.440857,2.681706,0.329315,7.588021,-6.187549
27.133137,49.781799,-5.065918,3.185246,0.552651,6.964717,-6.194135
27.148968,50.018311,-10.551453,2.254460,-0.152682,7.073690,-6.894678
27.164818,45.768738,-7.514954,2.986882,0.165256,6.764733,-6.880308
27.180620,40.367126,-7.209778,1.842473,0.167651,6.440806,-6.733613
27.196460,35.507202,-7.270813,1.201604,0.168250,6.619834,-7.130588
27.212446,30.326843,-7.682800,2.216313,-0.301174,6.656358,-6.875518
27.228361,25.619507,-5.355835,0.217412,-0.437690,6.709647,-7.012633
27.244124,23.147583,-4.661560,0.293706,-0.534688,6.650969,-7.143162
27.259877,19.577026,-4.173279,1.964543,-0.761017,6.814429,-7.034188
27.275493,17.242432,-1.853943,1.880620,-0.334105,6.690487,-6.792890
27.291106,13.870239,-0.656128,0.919316,-0.235311,6.715635,-7.015028
27.306745,10.314941,1.930237,-0.072505,-0.117356,6.730604,-7.024009
27.322424,7.637024,3.265381,-0.515010,0.257465,6.710845,-6.915635
27.338020,5.210876,4.356384,-1.911189,0.165256,6.788683,-6.804266
27.353593,2.624512,5.966187,-2.841975,0.153880,6.751560,-6.952159
27.369186,-0.015259,5.805969,-2.872493,0.143701,6.618637,-7.207228
27.384811,-3.273010,5.805969,-2.979304,-0.115560,6.706055,-7.232975
27.400479,-6.111145,3.814697,-1.895930,-0.066462,6.691685,-6.989282
27.416223,-8.995056,2.090454,-1.148250,0.003593,6.803053,-7.019818
27.431778,-10.765076,-0.076294,0.102971,0.088616,6.767128,-6.956949
27.447497,-13.168335,-1.586914,1.125310,0.162263,6.798263,-7.025805
27.463246,-15.914917,-3.219604,1.674626,0.140109,6.664741,-6.889888
27.479086,-19.889832,-3.242493,1.842473,0.085023,6.741381,-6.967726
27.494895,-24.185181,-3.952026,2.010320,0.110171,6.733597,-6.872524
27.510753,-28.007507,-3.875732,1.300786,-0.044907,6.774911,-6.935394
27.527024,-32.196045,-2.578735,0.781987,0.175435,6.875502,-6.872524
27.543349,-35.835266,-3.822327,0.026677,0.273032,4.046385,-6.685114
27.558969,-48.919678,-8.857727,2.132390,-0.736468,2.808160,-11.888893
27.574983,-154.663086,1.457214,2.475713,-1.093925,1.452579,-9.122645
27.590745,-197.326660,-6.362915,2.750371,0.595761,6.415060,-6.556981
27.606373,-185.127258,-7.759094,3.940557,-0.009580,9.298064,-4.069154
27.622111,-177.101135,-8.384705,0.995610,0.440684,9.244776,-4.730179
27.638066,-165.069580,-11.581421,4.383061,0.384401,8.479567,-5.688187
27.653832,-152.847290,-11.024475,0.575994,0.109572,11.001522,-6.029478
27.669379,-137.809753,-12.214661,0.133489,-0.569416,10.668015,-4.081129
27.684999,-109.375000,-9.681702,3.055547,-1.120270,9.271121,-3.786542
27.700688,-78.109741,-5.172729,4.192327,-0.118553,11.030262,-1.799274
27.716512,-36.811829,-6.706238,0.736211,-0.127535,8.533455,0.140692
27.732370,-9.956360,-10.581970,2.490972,-0.586181,10.400373,0.311935
27.748130,11.024475,-9.346008,1.415227,0.331111,9.906400,0.955597
27.763862,40.290833,-7.507324,1.682256,0.126337,10.127340,2.184242
27.780285,60.035706,-5.622864,0.125859,-0.155078,10.862611,1.357960
27.796338,38.772583,-1.495361,0.507329,0.196392,8.281978,-0.077255
27.812169,0.328064,-0.312805,2.071355,-0.365240,6.665339,-0.227543
27.827963,-32.592773,1.594543,0.667546,0.249681,7.498208,-0.870605
27.843815,-71.731567,1.342773,-1.430537,0.065264,6.838978,-1.050831
27.859656,-110.610962,1.335144,0.255559,-0.016166,9.181906,-0.886772
27.875276,-132.408142,2.052307,1.888250,-0.181423,9.956097,-2.110028
27.891525,-155.967712,6.629944,1.644109,-0.695753,10.598560,-1.174773
27.907172,-134.277344,0.350952,2.918218,0.170046,9.354347,-1.093342
27.922817,-108.230591,-0.175476,0.232671,-0.127535,12.389436,-1.138249
27.938549,-82.244873,-4.112244,-0.148799,0.089813,11.167976,-2.009437
27.954128,-65.513611,-5.020142,3.261540,-0.110171,9.200467,-2.147151
27.969719,-54.428101,-2.677917,3.246282,-0.086221,9.340576,-1.610068
27.985272,-45.372009,-4.783630,3.200505,0.173040,10.386600,-0.998739
28.000904,-43.746948,-4.173279,0.843022,-0.330513,9.226812,-0.532908
28.016614,-39.512634,-1.976013,2.963994,-0.349074,8.516689,0.199968
28.032378,-42.327881,0.823975,4.711125,0.003593,7.637717,-0.035941
28.048146,-46.455383,1.335144,3.643010,0.259860,9.069340,0.305349
28.063942,-55.679321,-0.602722,3.040288,-0.178429,8.721463,0.826865
28.079867,-61.714172,0.427246,2.834294,-0.179028,7.996970,0.456235
28.095718,-70.747375,0.999451,4.947637,0.077838,8.090975,0.292775
28.111438,-83.435059,0.625610,5.908940,0.161065,7.939490,0.088001
28.127275,-97.480774,1.304626,4.802678,0.061073,7.620952,0.171827
28.143093,-113.792419,1.235962,5.077336,0.076042,7.346124,0.038903
28.158903,-127.517700,2.212524,5.664800,-0.192799,6.855145,0.187993
28.174627,-140.350342,4.684448,7.389043,-0.083227,6.778504,0.455038
28.190291,-223.678589,56.159973,-73.062920,6.537206,19.617605,16.554359
28.206070,-195.854187,-9.567261,4.604314,6.196514,19.617605,13.305515
