Timestamp,Gyro_X_dps,Gyro_Y_dps,Gyro_Z_dps,Accel_X_mps2,Accel_Y_mps2,Accel_Z_mps2,Tilt_Angle_Deg
0.005576,0.442505,-0.144958,0.072454,-0.189207,7.976014,5.383988,55.979771
0.021244,0.343323,-0.228882,0.057195,-0.178429,7.976613,5.368421,56.058655
0.036840,0.556946,-0.160217,0.064824,-0.186812,7.937095,5.361235,55.962322
0.052463,0.228882,-0.244141,0.064824,-0.190404,7.971224,5.372612,56.020000
0.068063,0.419617,-0.228882,-0.034358,-0.192200,7.956854,5.390574,55.883316
0.083645,0.305176,-0.305176,0.064824,-0.199385,7.979008,5.383389,55.992691
0.099229,0.389099,-0.328064,-0.034358,-0.193398,7.967631,5.379198,55.975479
0.114849,0.259399,-0.312805,-0.049617,-0.205373,7.955057,5.382192,55.918709
0.130433,0.274658,-0.381470,-0.034358,-0.195793,7.952662,5.355248,56.044048
0.146032,0.244141,-0.228882,0.011418,-0.185015,7.968230,5.359439,56.075184
0.161612,0.427246,-0.450134,-0.003840,-0.193398,7.956255,5.397759,55.845867
0.177213,0.320435,-0.343323,-0.026729,-0.195793,7.958650,5.378000,55.951424
0.192820,0.556946,-0.259399,0.041936,-0.187410,7.953860,5.364828,56.000584
0.208402,0.427246,-0.366211,0.064824,-0.168849,7.961644,5.391173,55.896374
0.224002,0.396729,-0.213623,0.080083,-0.191003,7.962841,5.379797,55.956535
0.239611,0.518799,-0.213623,0.026677,-0.205373,7.967631,5.376803,55.987312
0.255211,0.389099,-0.251770,0.034307,-0.198787,7.960446,5.379198,55.951504
0.270814,0.434875,-0.213623,0.064824,-0.196392,7.953261,5.370217,55.971912
0.286395,0.389099,-0.305176,0.057195,-0.199984,7.991581,5.359439,56.152790
0.301979,0.305176,-0.289917,0.034307,-0.202379,7.977810,5.375606,56.027134
0.317570,0.381470,-0.251770,0.034307,-0.171843,7.951465,5.379797,55.918530
0.333151,0.236511,-0.289917,0.041936,-0.188608,7.981402,5.376803,56.033176
0.348749,0.320435,-0.335693,0.102971,-0.191602,7.957452,5.379198,55.941502
0.364350,0.457764,-0.350952,0.087712,-0.182021,7.947872,5.374408,55.933159
0.379954,0.259399,-0.358582,-0.011470,-0.195194,7.955057,5.386982,55.895046
0.395521,0.152588,-0.358582,0.026677,-0.194595,7.968829,5.381593,55.967644
0.411096,0.480652,-0.350952,0.057195,-0.188608,7.949668,5.366624,55.977688
0.426671,0.259399,-0.267029,0.003789,-0.195793,7.819140,5.371414,55.512600
0.442239,0.434875,-0.366211,0.080083,-0.215552,7.823331,5.379797,55.485226
0.457817,0.297546,-0.228882,0.034307,-0.192799,7.956255,5.375007,55.958225
0.473394,0.366211,-0.320435,0.019048,-0.188009,8.115523,5.386982,56.424294
0.488988,0.396729,-0.236511,0.049565,-0.186812,7.961045,5.374408,55.977177
0.504587,0.579834,-0.267029,0.064824,-0.192200,7.818541,5.375007,55.492672
0.520184,0.373840,-0.251770,0.080083,-0.191602,8.114326,5.383988,56.435078
0.535790,0.465393,-0.213623,-0.011470,-0.207169,7.948471,5.384587,55.884842
0.551383,0.320435,-0.205994,0.125859,-0.189207,7.825128,5.401352,55.384338
0.566987,0.450134,-0.335693,0.087712,-0.192200,7.819739,5.380994,55.466988
0.582554,0.411987,-0.274658,0.049565,-0.196392,7.953860,5.378599,55.932457
0.598128,0.473022,-0.205994,0.080083,-0.186213,7.977810,5.370815,56.050800
0.613713,0.450134,-0.297546,0.003789,-0.209564,7.964637,5.396562,55.879791
0.629290,0.427246,-0.251770,0.087712,-0.196392,7.960446,5.380395,55.945583
0.644874,0.366211,-0.328064,0.034307,-0.216749,7.971224,5.373210,56.017036
0.660441,0.205994,-0.328064,0.064824,-0.195194,7.949070,5.362433,55.996445
0.676020,0.305176,-0.396729,0.102971,-0.192799,7.978409,5.367223,56.070549
0.691584,0.297546,-0.343323,0.011418,-0.196392,7.947274,5.388179,55.863087
0.707154,0.228882,-0.289917,0.011418,-0.205972,7.956854,5.373210,55.969105
0.722733,0.320435,-0.289917,0.003789,-0.195194,7.973619,5.380994,55.986565
0.738310,0.366211,-0.221252,0.019048,-0.196990,7.961045,5.370217,55.997902
0.753904,0.411987,-0.297546,-0.011470,-0.195194,7.967032,5.401352,55.864189
0.769504,0.343323,-0.320435,0.164006,-0.199385,7.970625,5.386383,55.949989
0.785084,0.320435,-0.373840,0.125859,-0.190404,7.952662,5.370217,55.969910
0.800661,0.373840,-0.251770,0.041936,-0.193997,7.946675,5.392969,55.837433
0.816250,0.488281,-0.312805,-0.049617,-0.202978,7.958650,5.383988,55.921841
0.831833,0.381470,-0.205994,0.118230,-0.201182,7.976014,5.374408,56.027073
0.847458,0.480652,-0.251770,0.049565,-0.205373,7.952662,5.364828,55.996586
0.863033,0.411987,-0.373840,0.034307,-0.188608,7.982001,5.393568,55.952465
0.878602,0.328064,-0.350952,0.095342,-0.223934,7.965835,5.383988,55.945831
0.894187,0.335693,-0.274658,0.034307,-0.188608,7.956854,5.367822,55.995766
0.909774,0.274658,-0.236511,0.041936,-0.198188,7.933502,5.361235,55.950291
0.925355,0.335693,-0.144958,0.087712,-0.186812,7.955057,5.364828,56.004585
0.940921,0.434875,-0.312805,0.133489,-0.198188,7.983199,5.400155,55.924007
0.956485,0.404358,-0.274658,0.057195,-0.201780,7.973619,5.386383,55.959972
0.972052,0.305176,-0.366211,0.049565,-0.196990,7.961644,5.385186,55.925922
0.987614,0.343323,-0.343323,0.041936,-0.185614,7.965835,5.385186,55.939919
1.003169,0.228882,-0.198364,0.110601,-0.189207,7.970026,5.383389,55.962765
1.018748,0.320435,-0.343323,-0.011470,-0.195793,7.959249,5.363031,56.027466
1.034330,0.328064,-0.251770,0.057195,-0.194595,7.946675,5.394167,55.831516
1.049900,0.404358,-0.144958,0.057195,-0.192200,7.947274,5.369019,55.957829
1.065479,0.473022,-0.282288,0.118230,-0.189207,7.953261,5.376204,55.942299
1.081054,0.419617,-0.312805,0.133489,-0.200583,7.964637,5.381593,55.953663
1.096622,0.328064,-0.320435,0.049565,-0.193398,7.965236,5.371414,56.005959
1.112216,0.411987,-0.282288,0.003789,-0.202379,7.974217,5.381593,55.985607
1.127805,0.320435,-0.198364,0.064824,-0.204774,7.973020,5.373210,56.023022
1.143379,0.350952,-0.312805,0.041936,-0.187410,7.949070,5.376204,55.928284
1.158941,0.419617,-0.244141,-0.011470,-0.196990,7.953860,5.379198,55.929501
1.174502,0.419617,-0.274658,-0.011470,-0.185614,7.951465,5.369618,55.968876
1.190063,0.465393,-0.358582,-0.003840,-0.203577,7.970026,5.372612,56.016006
1.205621,0.427246,-0.350952,0.148748,-0.187410,7.979008,5.393568,55.942493
1.221186,0.289917,-0.221252,0.011418,-0.195793,7.961045,5.397161,55.864838
1.236757,0.366211,-0.404358,0.011418,-0.207169,8.101752,5.378000,56.423512
1.252324,0.152588,-0.366211,0.110601,-0.195793,7.967631,5.369019,56.025787
1.267901,0.312805,-0.221252,0.057195,-0.173639,8.104147,5.385186,56.396061
1.283484,0.312805,-0.030518,0.003789,-0.195194,7.971224,5.388179,55.943123
1.299063,0.488281,-0.343323,-0.019099,-0.207169,7.963440,5.389976,55.908279
1.314644,0.350952,-0.274658,0.087712,-0.190404,8.121511,5.361235,56.570087
1.330240,0.328064,-0.251770,0.026677,-0.201780,7.820337,5.381593,55.466057
1.345811,0.297546,-0.450134,0.011418,-0.198787,7.955057,5.389976,55.880264
1.361392,0.343323,-0.343323,0.148748,-0.209564,7.949668,5.378000,55.921406
1.377012,0.305176,-0.213623,0.125859,-0.193398,8.120314,5.379198,56.478027
1.392579,0.427246,-0.205994,0.125859,-0.192200,7.962841,5.379198,55.959496
1.408164,0.442505,-0.373840,0.141118,-0.192799,7.955656,5.378599,55.938461
1.423754,0.389099,-0.328064,0.003789,-0.196392,7.981402,5.367223,56.080505
1.439340,0.282288,-0.137329,-0.026729,-0.205972,7.950866,5.375007,55.940212
1.454933,0.328064,-0.343323,0.064824,-0.210163,7.979008,5.380395,56.007469
1.470535,0.320435,-0.335693,0.148748,-0.199385,7.973020,5.391772,55.931396
1.486155,0.274658,-0.328064,0.072454,-0.189805,7.971224,5.363031,56.067375
1.501758,0.312805,-0.183105,0.072454,-0.191003,7.958650,5.374408,55.969181
1.517342,0.495911,-0.335693,0.087712,-0.186213,7.944879,5.369618,55.946850
1.532931,0.305176,-0.259399,-0.019099,-0.190404,7.968230,5.385784,55.944958
1.548540,0.419617,-0.129700,0.011418,-0.186812,7.952662,5.357643,56.032177
1.564152,0.434875,-0.297546,0.102971,-0.222138,7.963440,5.385186,55.931923
1.579770,0.274658,-0.213623,-0.003840,-0.196990,7.955057,5.379797,55.930542
1.595382,0.320435,-0.350952,0.095342,-0.185614,7.965835,5.386383,55.934006
1.610972,0.442505,-0.312805,0.080083,-0.185015,7.957452,5.378599,55.944466
1.626569,0.381470,-0.312805,0.072454,-0.192200,7.974816,5.366624,56.061558
1.642178,0.411987,-0.213623,-0.011470,-0.199984,7.971823,5.378599,55.992409
1.657791,0.366211,-0.350952,0.148748,-0.182021,7.961045,5.390574,55.897327
1.673396,0.228882,-0.297546,-0.041987,-0.189207,7.958650,5.382791,55.927753
1.689018,0.366211,-0.312805,-0.034358,-0.191003,7.978409,5.372612,56.043919
1.704619,0.320435,-0.343323,0.057195,-0.196392,7.969428,5.369019,56.031773
1.720185,0.328064,-0.198364,-0.049617,-0.187410,7.953860,5.383389,55.908783
1.735759,0.289917,-0.274658,-0.011470,-0.193997,7.971823,5.382192,55.974667
1.751338,0.312805,-0.274658,0.019048,-0.192799,7.961045,5.386982,55.915058
1.766913,0.373840,-0.297546,0.102971,-0.189207,7.955656,5.362433,56.018440
1.782499,0.419617,-0.274658,-0.011470,-0.195194,7.967631,5.385186,55.945911
1.798091,0.259399,-0.190735,-0.026729,-0.187410,7.967032,5.387580,55.932095
1.813666,0.198364,-0.305176,0.026677,-0.188009,7.961045,5.376204,55.968300
1.829244,0.411987,-0.244141,0.011418,-0.206570,7.961045,5.360637,56.045311
1.844838,0.289917,-0.251770,0.026677,-0.208367,7.967631,5.368421,56.028748
1.860422,0.335693,-0.213623,-0.011470,-0.186812,7.963440,5.381593,55.949661
1.876017,0.297546,-0.450134,-0.003840,-0.214354,7.967631,5.370815,56.016907
1.891610,0.312805,-0.297546,-0.057246,-0.194595,7.959847,5.378599,55.952461
1.907200,0.343323,-0.366211,0.102971,-0.198188,7.941286,5.384587,55.860779
1.922786,0.335693,-0.289917,0.034307,-0.211959,7.971823,5.382192,55.974667
1.938388,0.419617,-0.389099,-0.041987,-0.204175,7.966434,5.397161,55.882843
1.954004,0.213623,-0.221252,-0.064875,-0.185614,7.947872,5.367223,55.968723
1.969588,0.022888,-0.312805,0.003789,-0.218546,7.978409,5.386383,55.975929
1.985190,0.007629,-0.381470,0.087712,-0.181423,7.963440,5.365427,56.029591
2.000797,0.099182,-0.297546,0.011418,-0.171244,7.959847,5.397161,55.860836
2.016404,0.122070,-0.297546,0.057195,-0.179028,7.979606,5.410932,55.858994
2.032008,0.205994,-0.328064,-0.087764,-0.211959,7.971224,5.355248,56.105907
2.047602,0.129700,-0.434875,0.011418,-0.193997,7.962243,5.349260,56.105675
2.063207,0.205994,-0.244141,0.026677,-0.191602,7.979606,5.395364,55.935635
2.078790,0.015259,-0.244141,-0.026729,-0.226928,7.972421,5.384587,55.964844
2.094390,0.053406,-0.267029,0.003789,-0.170645,7.950267,5.384587,55.890854
2.109982,-0.167847,-0.320435,0.064824,-0.211959,7.955057,5.372612,55.966064
2.125586,-0.251770,-0.244141,-0.041987,-0.189805,7.941286,5.289984,56.330952
2.141194,-1.068115,0.091553,-0.019099,-0.169448,7.974816,5.269626,56.543938
2.156801,-1.884460,-0.030518,-0.156428,-0.146695,8.004754,5.276811,56.606743
2.172406,-2.517700,0.030518,-0.537898,-0.163460,8.011340,5.301360,56.506123
2.188015,-2.761841,-0.518799,-0.988032,-0.159868,8.004155,5.303755,56.470543
2.203622,-3.456116,-0.465393,-1.194026,-0.167053,7.963440,5.227713,56.716534
2.219239,-4.890442,-0.625610,-1.453425,-0.207768,7.946076,5.242682,56.583870
2.234847,-6.027222,-0.892639,-1.247432,-0.364043,8.031099,5.192387,57.115917
2.250438,-6.889343,0.061035,-0.896479,-0.229922,8.035890,5.366025,56.266685
2.266030,-6.797791,0.335693,-0.087764,-0.215552,8.031698,5.410932,56.031963
2.281635,-7.270813,0.610352,0.278447,-0.304167,7.928712,5.372013,55.880825
2.297241,-8.430481,0.282288,0.629399,-0.246088,7.887997,5.314532,56.029907
2.312850,-10.002136,0.419617,0.804875,-0.210163,7.958051,5.222324,56.725853
2.328464,-11.558533,0.137329,0.575994,-0.249681,7.954459,5.265435,56.497528
2.344072,-13.465881,-0.030518,0.034307,-0.176633,7.971823,5.404346,55.865440
2.359693,-14.549255,-0.396729,-0.553157,-0.089214,7.921527,5.477993,55.334888
2.375304,-15.007019,-0.343323,-1.506831,-0.119152,7.902966,5.527689,55.029331
2.390922,-15.335083,-0.648499,-1.903560,-0.234712,7.729926,5.510325,54.516594
2.406537,-17.013550,-0.465393,-1.392390,-0.335901,7.626940,5.679773,53.324989
2.422158,-18.142700,-0.823975,-1.659419,-0.235909,7.541916,5.762401,52.618362
2.437771,-18.791199,-1.197815,-1.743342,-0.213755,7.628137,5.956398,52.015656
2.453352,-18.157959,-0.534058,-1.171138,-0.184417,7.666458,6.030045,51.813213
2.468945,-17.089844,0.167847,-0.949885,-0.377216,7.590415,6.041421,51.482750
2.484534,-16.433716,-0.297546,-0.698115,-0.159868,7.432943,6.079741,50.718712
2.500117,-16.059875,1.846313,-0.476863,-0.208367,7.385642,6.098303,50.453609
2.515703,-16.136169,0.053406,-0.965144,-0.207768,7.328760,6.176141,49.878269
2.531316,-15.792847,1.808167,-1.064326,-0.288600,7.364685,6.207875,49.871635
2.546922,-15.014648,1.853943,-1.163508,-0.303569,7.365284,6.263559,49.621613
2.562506,-13.999939,0.175476,-0.896479,-0.238903,7.410789,6.267750,49.776791
2.578094,-13.351440,0.419617,-0.644709,-0.291594,7.377858,6.232424,49.810642
2.593683,-13.603210,0.137329,-0.919368,-0.314945,7.235953,6.191110,49.449574
2.609247,-14.808655,-0.068665,-0.972773,-0.229323,7.144942,6.218652,48.965080
2.624822,-15.640259,0.175476,-0.476863,-0.333506,7.253317,6.322237,48.923492
2.640408,-15.357971,0.587463,-0.408198,-0.359253,7.283853,6.398878,48.700634
2.656000,-14.640808,0.091553,-0.415828,-0.308359,7.323371,6.446179,48.645111
2.671605,-14.221191,-0.244141,-0.278499,-0.278421,7.309001,6.404865,48.771973
2.687207,-14.350891,0.000000,-0.110652,-0.249082,7.228169,6.391094,48.517120
2.702812,-14.839172,-0.137329,-0.194575,-0.237706,7.105424,6.373131,48.109837
2.718417,-15.930176,-0.328064,-0.408198,-0.282612,7.073690,6.403069,47.848763
2.734005,-17.028809,-0.221252,-0.545527,-0.209564,6.902446,6.476117,46.825203
2.749616,-17.631531,-0.328064,-0.911738,-0.276625,7.012617,6.568325,46.873726
2.765232,-17.860413,-0.068665,-0.255610,-0.347278,6.995852,6.650953,46.447739
2.780846,-17.944336,0.205994,0.095342,-0.308359,7.005432,6.685082,46.340443
2.796472,-17.791748,-0.183105,0.049565,-0.329315,6.756949,6.672509,45.360252
2.812075,-18.180847,-0.495911,-0.164058,-0.275427,6.789880,6.752143,45.159664
2.827692,-18.898010,-0.480652,0.049565,-0.229323,6.771918,6.865308,44.607635
2.843308,-18.730164,0.099182,0.408147,-0.333506,6.781498,6.939553,44.340027
2.858898,-17.913818,-0.045776,-0.019099,-0.215552,6.807843,6.968892,44.330246
2.874501,-17.356873,-0.328064,-0.309016,-0.198787,6.686296,7.000028,43.686840
2.890110,-17.417908,0.167847,-0.553157,-0.198188,6.579718,7.019187,43.149040
2.905706,-17.662048,0.366211,-1.148250,-0.268841,6.541397,7.062897,42.804729
2.921314,-17.364502,-0.183105,-1.422908,-0.307760,6.553971,7.070681,42.828121
2.936930,-16.983032,-0.213623,-1.270320,-0.307760,6.574328,7.090439,42.836998
2.952526,-16.975403,-0.221252,-0.721003,-0.343685,6.487509,7.019786,42.743336
2.968123,-17.440796,-0.198364,-0.904109,-0.370629,6.346802,6.985657,42.256638
2.983727,-18.524170,0.602722,-1.483943,-0.140109,6.245013,7.009009,41.700977
2.999324,-20.507812,1.037598,-1.392390,-0.144300,6.195916,7.058107,41.278080
3.014931,-22.079468,0.915527,-2.040889,-0.214953,6.324648,7.136544,41.548454
3.030536,-23.918152,0.022888,-2.689387,-0.272433,6.456374,7.435322,40.969025
3.046163,-22.453308,-0.137329,-2.582576,-0.408351,6.520441,7.687997,40.302361
3.061777,-20.240784,-0.350952,-1.720454,-0.543071,6.486910,7.683805,40.172108
3.077384,-18.859863,-0.396729,-1.499202,-0.481399,6.388715,7.527531,40.321709
3.093001,-18.379211,-0.404358,-0.698115,-0.408950,6.032455,7.341318,39.410385
3.108616,-20.416260,0.068665,0.156377,-0.382006,5.998925,7.278449,39.495480
3.124233,-22.758484,0.030518,0.598882,-0.128732,5.795947,7.345509,38.275074
3.139847,-25.070190,-0.038147,1.010869,-0.399968,5.673203,7.579622,36.814152
3.155464,-25.703430,0.885010,0.362371,-0.423320,5.821694,7.840679,36.593838
3.171073,-24.383545,-0.503540,0.011418,-0.285606,5.872588,7.932888,36.511944
3.186691,-22.834778,-0.663757,0.453923,-0.410147,5.809120,7.975998,36.066792
3.202307,-21.926880,0.305176,0.659917,-0.307760,5.667814,7.901154,35.653389
3.217923,-21.568298,-0.221252,-0.743892,-0.307760,5.525310,7.827507,35.217648
3.233530,-22.033691,-1.098633,-1.186396,-0.243693,5.429509,7.862235,34.628220
3.249157,-22.827148,0.373840,0.072454,-0.295186,5.398973,7.955041,34.164181
3.264776,-22.621155,0.755310,0.194524,-0.311353,5.297783,7.967615,33.620510
3.280379,-22.552490,-0.854492,-1.842524,-0.188608,5.362449,8.122693,33.432037
3.296000,-21.682739,-1.266479,-1.361873,-0.335303,5.357659,8.141254,33.348419
3.311584,-21.583557,-0.564575,-0.309016,-0.468226,5.333110,8.220290,32.974457
3.327191,-21.186829,-0.648499,-0.362422,-0.350870,5.196594,8.270585,32.142063
3.342787,-19.874573,-0.991821,-0.041987,-0.296982,5.119953,8.177179,32.051796
3.358413,-19.599915,0.709534,2.292607,-0.252675,4.988227,8.053237,31.774340
3.374023,-21.224976,1.312256,0.606511,-0.040715,4.949308,7.995757,31.757166
3.389626,-23.689270,0.389099,-0.011470,-0.223336,4.972659,8.213105,31.192986
3.405241,-24.017334,0.633240,-0.919368,-0.356259,5.107978,8.494519,31.019598
3.420847,-22.346497,1.388550,-0.827815,-0.302970,5.082830,8.477755,30.944756
3.436455,-21.820068,1.045227,-0.591304,-0.305964,4.993017,8.470570,30.517426
3.452067,-21.446228,0.488281,-2.018001,-0.265248,4.821174,8.532241,29.468779
3.467685,-21.385193,0.625610,-3.139522,-0.410746,4.635561,8.348423,29.041739
3.483299,-22.544861,0.610352,-3.467586,-0.364642,4.570895,8.401712,28.548103
3.498901,-23.811340,0.312805,-3.246333,-0.412542,4.579278,8.469971,28.397810
3.514485,-24.787903,0.442505,-3.276851,-0.477208,4.508624,8.520864,27.884550
3.530080,-25.032043,0.396729,-4.001643,-0.324525,4.434978,8.694504,27.025661
3.545669,-24.765015,-0.144958,-1.598384,-0.400567,4.433181,8.777731,26.795998
3.561271,-24.032593,0.595093,-2.742793,-0.522713,4.314628,8.754978,26.234995
3.576881,-23.651123,0.915527,-2.666499,-0.373623,4.215234,8.760965,25.693979
3.592487,-23.742676,0.160217,-2.231624,-0.478405,4.186494,8.719052,25.648212
3.608095,-24.475098,0.083923,-1.041438,-0.486189,4.039200,8.751985,24.774185
3.623703,-27.267456,0.175476,0.110601,-0.492177,3.929628,8.837606,23.972252
3.639309,-25.413513,-0.007629,0.484441,-0.568817,3.832630,8.762163,23.624895
3.654931,-25.665283,-0.740051,0.164006,-0.560435,3.773952,8.856767,23.079313
3.670537,-26.641846,-0.274658,0.537847,-0.472418,3.787723,8.995678,22.834030
3.686155,-26.092529,-0.198364,1.407598,-0.329914,3.749403,9.119021,22.350645
3.701748,-25.260925,-0.740051,0.835393,-0.425116,3.602109,9.184884,21.414019
3.717348,-24.253845,-0.755310,0.263188,-0.407153,3.490142,9.165125,20.847176
3.732951,-23.178101,-0.465393,0.247930,-0.485590,3.515889,9.118423,21.085682
3.748560,-22.476196,-0.740051,0.232671,-0.332908,3.385360,9.126206,20.352303
3.764163,-22.132874,-0.457764,-0.064875,-0.326321,3.116519,9.102855,18.899523
3.779777,-22.010803,-1.068115,0.202153,-0.364043,3.069816,9.196859,18.458475
3.795359,-21.453857,-0.694275,0.675176,-0.498164,3.120710,9.311820,18.527767
3.810971,-20.111084,-0.556946,0.820134,-0.398771,3.115322,9.453725,18.238798
3.826580,-18.836975,-0.427246,0.629399,-0.295785,3.086581,9.366306,18.239168
3.842186,-15.739441,-0.717163,0.621770,-0.477806,3.001558,9.368702,17.764496
3.857792,-16.174316,-0.312805,0.575994,-0.413740,2.918930,9.154946,17.684174
3.873398,-15.464783,-0.389099,0.492070,-0.288600,2.826123,9.259130,16.973530
3.889013,-15.472412,-0.709534,0.476812,-0.341290,2.815346,9.203445,17.008936
3.904620,-15.953064,-0.350952,0.553105,-0.347278,2.832709,9.211828,17.093075
3.920234,-16.403198,-0.320435,0.469182,-0.271835,2.857857,9.155545,17.335489
3.935846,-16.578674,-0.297546,0.194524,-0.381407,2.818938,9.401633,16.690567
3.951460,-16.227722,-0.068665,-0.103022,-0.499960,2.616559,9.370498,15.601525
3.967076,-13.923645,-0.190735,-0.568416,-0.371827,2.640509,9.575273,15.416904
3.982690,-15.174866,-0.503540,-0.408198,-0.387394,2.705174,9.599222,15.738465
3.998306,-14.389038,-0.404358,-0.164058,-0.504750,2.639910,9.430972,15.637954
4.013913,-14.175415,-0.366211,-0.324275,-0.446072,2.584226,9.405226,15.363729
4.029498,-14.350891,-0.495911,0.034307,-0.452060,2.445914,9.383671,14.609437
4.045080,-14.808655,-0.541687,0.370000,-0.416733,2.415377,9.388461,14.427649
4.060671,-15.037537,-0.625610,0.469182,-0.334704,2.400408,9.398640,14.327044
4.076257,-15.312195,-0.518799,0.560735,-0.325723,2.390828,9.606407,13.975750
4.091834,-15.167236,-0.366211,0.179265,-0.322729,2.341132,9.511206,13.828150
4.107404,-15.312195,-0.358582,-0.438716,-0.380209,2.342928,9.532162,13.809095
4.122985,-15.121460,-0.305176,-0.598933,-0.432301,2.238744,9.509409,13.247579
4.138592,-14.900208,-0.312805,-0.278499,-0.423320,2.254312,9.547131,13.285597
4.154194,-14.656067,-0.381470,-0.125911,-0.446671,2.183060,9.548927,12.877560
4.169782,-14.808655,-0.396729,-0.148799,-0.402962,2.130370,9.544736,12.582096
4.185394,-15.151978,-0.587463,0.026677,-0.382604,2.055526,9.457916,12.261632
4.201009,-15.800476,-0.480652,-0.141169,-0.384401,2.023792,9.483064,12.046840
4.216615,-16.456604,-0.625610,-0.133540,-0.376617,1.996249,9.533360,11.826638
4.232211,-16.754150,-0.564575,0.286077,-0.378413,1.944157,9.583654,11.467506
4.247819,-17.318726,-0.389099,0.270818,-0.370629,1.869313,9.590241,11.029695
4.263428,-17.356873,-0.289917,-0.186946,-0.347278,1.850153,9.636944,10.867719
4.279019,-17.333984,-0.228882,-0.408198,-0.337698,1.813629,9.672271,10.620101
4.294625,-17.265320,-0.137329,-0.583674,-0.371228,1.781895,9.692628,10.416951
4.310238,-17.227173,0.007629,-0.835444,-0.354463,1.714834,9.667480,10.058597
4.325849,-17.059326,0.152588,-1.400020,-0.392184,1.574725,9.631556,9.285503
4.341441,-17.791748,0.534058,-1.949336,-0.338895,1.484912,9.540545,8.846666
4.357088,-18.623352,0.892639,-2.262141,-0.293989,1.500480,9.587846,8.894535
4.372649,-19.386292,0.991821,-2.620723,-0.307161,1.489702,9.659098,8.767527
4.388244,-20.011902,1.220703,-2.697017,-0.350272,1.439407,9.714782,8.428007
4.403851,-20.248413,1.457214,-3.154780,-0.361648,1.414259,9.753701,8.250228
4.419465,-20.034790,1.724243,-3.673579,-0.401166,1.165177,9.702209,6.848083
4.435066,-20.423889,3.875732,-3.978755,-0.445474,1.066981,9.598025,6.343340
4.450667,-20.324707,2.891541,-4.467036,-0.312550,1.076561,9.553717,6.429258
4.466260,-22.140503,2.563477,-5.565669,-0.305365,0.971180,9.550124,5.806617
4.481859,-23.818970,3.219604,-6.916072,-0.384999,0.899929,9.678258,5.312348
4.497452,-24.765015,3.433228,-6.938960,-0.376018,1.009501,9.883032,5.832241
4.513061,-23.742676,3.486633,-6.961848,-0.438887,1.015488,10.132713,5.723004
4.528664,-22.026062,3.387451,-6.618526,-0.571811,0.946631,10.126126,5.340721
4.544291,-20.812988,3.341675,-5.992915,-0.589774,0.750839,9.955482,4.313060
4.559893,-20.217896,2.967834,-5.695369,-0.649649,0.482596,9.772263,2.827215
4.575496,-20.828247,2.830505,-5.046870,-0.620310,0.441282,9.703405,2.603850
4.591090,-21.606445,2.601624,-4.787471,-0.561632,0.429906,9.630358,2.556027
4.606690,-22.239685,2.067566,-4.970576,-0.583786,0.399370,9.589643,2.384758
4.622319,-23.788452,2.220154,-4.673030,-0.629291,0.289797,9.704004,1.710555
4.637932,-24.108887,2.265930,-3.986384,-0.588576,0.188608,9.639937,1.120863
4.653529,-25.604248,2.258301,-3.780391,-0.552651,0.180225,9.717177,1.062547
4.669100,-25.878906,1.838684,-4.268672,-0.577200,0.164658,9.988413,0.944427
4.684674,-25.032043,2.319336,-4.421260,-0.638273,0.064067,10.012363,0.366617
4.700238,-24.269104,2.426147,-3.971126,-0.543669,0.010778,10.023740,0.061605
4.715818,-23.483276,0.045776,-3.711726,-0.550855,-0.053888,9.961469,-0.309946
4.731402,-23.231506,1.899719,-4.047420,-0.655038,-0.185614,9.803997,-1.084622
4.746998,-23.323059,1.876831,-3.833797,-0.682581,-0.275427,9.742325,-1.619389
4.762591,-24.269104,1.907349,-3.658320,-0.653242,-0.373024,9.671073,-2.208869
4.778175,-24.948120,1.625061,-3.681209,-0.660427,-0.412542,9.593235,-2.462399
4.793768,-27.038574,2.006531,-3.955867,-0.631088,-0.468825,9.632154,-2.786554
4.809359,-27.984619,2.113342,-4.795100,-0.627495,-0.731678,9.767472,-4.284009
4.824928,-28.083801,2.326965,-4.894282,-0.652643,-0.662223,9.947698,-3.808587
4.840528,-27.091980,2.502441,-4.276301,-0.622705,-0.871787,9.978234,-4.993189
4.856137,-26.550293,2.922058,-4.306819,-0.604742,-0.899330,9.872853,-5.204776
4.871735,-26.130676,2.784729,-4.680659,-0.669408,-1.021476,9.647721,-6.043812
4.887342,-27.999878,3.639221,-5.123164,-0.607137,-0.993334,9.675264,-5.861871
4.902948,-28.976440,3.608704,-5.962398,-0.585582,-1.219065,9.739930,-7.134131
4.918554,-28.678894,3.448486,-6.122615,-0.671204,-1.084944,9.963265,-6.214703
4.934155,-28.556824,3.730774,-5.191829,-0.683179,-1.077160,9.950691,-6.178198
4.949774,-26.512146,3.143311,-5.123164,-0.817899,-1.359174,9.912970,-7.807180
4.965388,-25.749207,2.952576,-4.993464,-0.913700,-1.490900,9.851298,-8.605862
4.981005,-25.207520,3.021240,-4.200007,-0.863405,-1.580114,9.696220,-9.255666
4.996601,-25.115967,2.128601,-4.024531,-0.834066,-1.806443,9.607006,-10.649207
5.012229,-25.588989,1.487732,-3.482844,-0.872386,-1.725013,9.577068,-10.210582
5.027814,-26.206970,1.434326,-3.116633,-0.814307,-1.813030,9.608204,-10.685841
5.043378,-27.038574,0.831604,-3.566768,-0.848436,-1.920207,9.573476,-11.341647
5.058954,-27.091980,0.511169,-3.017451,-0.860411,-2.108216,9.560902,-12.434954
5.074550,-27.091980,0.900269,-2.498652,-0.717308,-2.118994,9.688437,-12.337101
5.090156,-26.748657,0.732422,-2.536799,-0.714315,-2.177671,9.698017,-12.655738
5.105756,-25.634766,1.007080,-2.483394,-0.729882,-2.251318,9.713585,-13.049050
5.121355,-25.016785,0.938416,-2.101924,-0.610131,-2.317181,9.671073,-13.474017
5.136936,-24.208069,0.556946,-2.239253,-0.688568,-2.424359,9.623772,-14.139387
5.152527,-23.162842,0.686646,-2.429988,-0.814307,-2.584226,9.530964,-15.170441
5.168096,-22.964478,1.350403,-2.826716,-0.803529,-2.658472,9.438157,-15.731082
5.183669,-22.102356,1.098633,-3.086116,-0.813708,-2.692002,9.417201,-15.953119
5.199253,-22.300720,1.167297,-3.055598,-0.838257,-2.738705,9.405825,-16.234035
5.214845,-22.064209,1.518250,-3.238704,-0.890348,-3.003953,9.422589,-17.682457
5.230429,-22.460938,1.586914,-2.841975,-0.805924,-2.835703,9.447738,-16.706932
5.246005,-21.018982,1.373291,-2.574946,-0.761616,-2.950664,9.526773,-17.208975
5.261585,-19.622803,0.572205,-1.895930,-0.781375,-3.077600,9.445941,-18.046225
5.277171,-19.180298,0.381470,-1.216914,-0.766406,-3.120710,9.421392,-18.326761
5.292758,-18.203735,-0.099182,-1.232173,-0.780776,-3.131488,9.377683,-18.465704
5.308342,-17.082214,-0.762939,-0.484492,-0.785566,-3.352429,9.417201,-19.595217
5.323912,-16.387939,-1.098633,0.217412,-0.773591,-3.366799,9.266315,-19.967976
5.339494,-16.212463,-1.251221,0.606511,-0.775986,-3.263214,9.268710,-19.395523
5.355097,-17.509460,-1.434326,0.720952,-0.823887,-3.376977,9.271704,-20.012840
5.370704,-14.831543,-1.708984,0.804875,-0.833467,-3.424279,9.254938,-20.304213
5.386310,-14.160156,-1.739502,0.957463,-0.863405,-3.447631,9.290265,-20.359962
5.401925,-13.023376,-1.296997,0.514959,-0.849633,-3.467988,9.289666,-20.471447
5.417519,-11.848450,-1.373291,0.179265,-0.820294,-3.488945,9.297450,-20.569016
5.433144,-11.360168,-1.296997,0.125859,-0.832868,-3.478167,9.260327,-20.586115
5.448755,-10.864258,-1.419067,0.080083,-0.853824,-3.506309,9.219013,-20.823534
5.464368,-10.398865,-1.121521,-0.202205,-0.807720,-3.555407,9.201051,-21.127186
5.479991,-10.185242,-1.251221,-0.164058,-0.756826,-3.574567,9.178897,-21.277588
5.495597,-10.131836,-1.556396,0.110601,-0.695154,-3.617677,9.197458,-21.471422
5.511184,-10.215759,-1.831055,0.202153,-0.691562,-3.603307,9.225599,-21.334473
5.526793,-9.941101,-1.670837,0.118230,-0.689167,-3.618875,9.252543,-21.361568
5.542398,-7.888794,-1.502991,0.156377,-0.647853,-3.675756,9.232185,-21.709770
5.557930,-9.498596,-1.564026,0.194524,-0.686173,-3.690725,9.227396,-21.800161
5.573390,-9.025574,-1.457214,0.232671,-0.692759,-3.735632,9.204044,-22.090685
5.588854,-9.048462,-1.029968,-0.209834,-0.685574,-3.721262,9.168717,-22.090511
5.604449,-9.124756,-0.877380,-0.515010,-0.705333,-3.708688,9.120218,-22.128853
5.620063,-9.704590,-0.793457,-0.560786,-0.690364,-3.750601,9.160336,-22.266117
5.635678,-9.918213,-0.541687,-0.637080,-0.792153,-3.835025,9.081898,-22.892941
5.651266,-9.742737,-0.679016,-0.614192,-0.778980,-3.923641,9.077108,-23.376736
5.666857,-9.468079,-0.556946,-0.408198,-0.758024,-3.973936,9.087886,-23.618719
5.682449,-8.972168,-0.610352,-0.240352,-0.722697,-4.011658,9.101058,-23.787418
5.698046,-7.980347,-0.465393,-0.293757,-0.709525,-4.014053,9.107645,-23.784740
5.713628,-7.118225,-0.259399,-0.560786,-0.683179,-4.018244,9.104650,-23.813772
5.729217,-6.301880,-0.442505,-0.446345,-0.658630,-4.023633,9.093274,-23.868649
5.744813,-6.149292,-0.312805,-0.324275,-0.675395,-4.010460,9.097466,-23.789454
5.760403,-6.149292,-0.045776,-0.331904,-0.670605,-4.017645,9.033998,-23.975916
5.775998,-6.027222,-0.137329,-0.476863,-0.705932,-4.100872,9.021424,-24.445137
5.791589,-6.484985,0.068665,-0.476863,-0.725691,-4.056564,9.030405,-24.190178
5.807191,-6.507874,0.335693,-0.522639,-0.703537,-4.027824,9.001066,-24.107702
5.822799,-6.149292,0.251770,-1.010920,-0.728685,-4.115841,9.042380,-24.473711
5.838398,-6.347656,0.724792,-1.071956,-0.706531,-4.073928,9.054356,-24.224947
5.853987,-6.080627,0.854492,-1.201655,-0.732277,-4.150569,9.045973,-24.647104
5.869584,-5.752563,0.953674,-1.270320,-0.792153,-4.105063,8.910654,-24.735126
5.885174,-6.988525,1.197815,-1.049067,-0.740061,-4.184099,8.992085,-24.952990
5.900763,-6.629944,0.411987,-1.277949,-0.841849,-4.166735,8.916642,-25.046623
5.916360,-7.713318,0.625610,-1.079585,-0.789758,-4.161945,8.970530,-24.889301
5.931945,-8.163452,0.938416,-0.850703,-1.000519,-4.240382,8.847785,-25.606499
5.947535,-9.475708,1.655579,-1.842524,-0.592767,-4.277505,9.113033,-25.144573
5.963129,-10.704041,1.091003,-1.056697,-0.642464,-4.007466,8.929215,-24.170727
5.978733,-13.206482,3.005981,-1.644160,-0.067061,-4.176914,9.073516,-24.718567
5.994333,-17.723083,0.785828,-0.782039,-0.419128,-4.160149,9.090879,-24.589680
6.009926,-20.118713,-0.259399,-1.422908,-0.601150,-4.075126,9.363313,-23.519766
6.025523,-20.042419,-0.465393,-0.698115,-0.955613,-4.243376,9.514798,-24.035746
6.041120,-17.654419,-0.122070,-1.338984,-0.884361,-4.348757,9.406424,-24.811939
6.056714,-14.938354,1.190186,-2.674129,-1.099913,-4.405040,9.169316,-25.660137
6.072306,-14.083862,2.204895,-2.796199,-1.017883,-4.546945,8.857365,-27.173780
6.087901,-13.542175,2.868652,-4.138972,-1.000519,-4.658912,8.648998,-28.309788
6.103503,-14.045715,2.014160,-4.238154,-1.166375,-5.049300,8.399318,-31.012430
6.119125,-15.785217,1.594543,-3.040339,-1.023272,-4.816983,8.242444,-30.302526
6.134716,-16.738892,-0.122070,-2.048518,-0.915496,-4.927752,8.214901,-30.957663
6.150311,-18.447876,-1.983643,-0.949885,-0.802930,-5.205575,8.255017,-32.235336
6.165904,-19.844055,-3.700256,0.400518,-0.736468,-5.043911,8.508890,-30.658670
6.181496,-19.935608,-6.584167,2.895329,-0.751437,-4.967869,8.355010,-30.735615
6.197088,-21.377563,-9.635925,5.298589,-0.768801,-5.075645,8.530445,-30.752796
6.212697,-21.270752,-12.969971,6.603215,-0.752635,-5.131330,8.650795,-30.674841
6.228297,-20.553589,-15.632629,8.747075,-0.717308,-5.079836,8.694504,-30.295963
6.243897,-19.821167,-18.280029,10.738347,-0.744851,-5.182822,8.696301,-30.794102
6.259488,-18.318176,-19.615173,11.142705,-0.863405,-5.231920,8.569963,-31.403860
6.275082,-17.456055,-19.828796,11.058782,-0.815504,-5.244494,8.489131,-31.707327
6.290672,-16.532898,-19.462585,10.585759,-0.712518,-5.365442,8.390336,-32.598053
6.306307,-16.372681,-19.676208,10.669683,-0.631088,-5.373226,8.096947,-33.568707
6.321900,-18.196106,-19.912720,10.875676,-0.628693,-5.401368,7.840081,-34.564625
6.337513,-21.247864,-20.187378,10.425542,-0.539478,-5.616321,7.723323,-36.024258
6.353138,-23.887634,-19.462585,9.906743,-0.374821,-5.534291,7.865827,-35.129707
6.368753,-23.658752,-17.974854,9.334538,-0.232916,-5.779182,8.188556,-35.213039
6.384370,-21.408081,-16.616821,6.237004,-0.324525,-5.952222,8.458594,-35.133640
6.399986,-16.586304,-15.007019,7.099126,-0.173639,-5.819299,8.232863,-35.254112
6.415608,-12.916565,-13.191223,7.305120,-0.295785,-5.636080,8.339442,-34.052166
6.431228,-13.046265,-14.541626,8.419011,0.105980,-5.704338,8.178976,-34.893425
6.446843,-14.274597,-14.984131,6.320928,-0.105980,-5.622308,7.983183,-35.155849
6.462457,-15.876770,-14.335632,7.411931,0.044308,-5.869594,8.145446,-35.776455
6.478067,-16.357422,-13.099670,6.877873,-0.035925,-5.925877,8.271783,-35.617680
6.493675,-14.572144,-11.413574,5.786870,-0.029339,-5.915100,8.265197,-35.589916
6.509974,-12.382507,-7.743835,4.009221,0.110171,-6.071973,8.383151,-35.916073
6.525569,-10.406494,-2.159119,1.857732,0.193398,-5.868995,8.317887,-35.206306
6.541170,-9.666443,-1.502991,0.385259,0.235311,-5.823490,8.360997,-34.857468
6.556781,-8.468628,0.556946,-0.797297,0.271835,-5.875582,7.963424,-36.420685
6.572374,-9.635925,1.174927,-0.957515,0.329914,-6.182144,8.090360,-37.384789
6.587969,-13.450623,1.174927,-0.980403,0.227527,-6.128256,7.834692,-38.032337
6.603553,-15.975952,0.923157,-0.774409,-0.005389,-5.827681,7.759249,-36.908840
6.619158,-20.103455,2.868652,-1.430537,-0.106578,-5.827681,7.817328,-36.703888
6.634777,-21.903992,4.554749,-2.826716,-0.193398,-6.083350,8.047849,-37.085548
6.650360,-21.804810,5.271912,-3.238704,-0.207768,-6.276149,8.140057,-37.632954
6.665936,-21.209717,5.813599,-3.131892,-0.411345,-6.185138,8.230469,-36.924599
6.681535,-19.302368,5.371094,-3.109004,-0.344883,-6.204298,8.084373,-37.504196
6.697135,-17.921448,4.821777,-2.628352,-0.286804,-6.311475,7.913727,-38.573589
6.712705,-17.395020,3.776550,-2.162959,-0.296384,-6.507268,7.680213,-40.273842
6.728296,-16.258240,2.510071,-2.536799,-0.378413,-6.585106,7.537709,-41.141167
6.743881,-15.243530,1.098633,-1.247432,-0.428708,-6.744375,7.350898,-42.536072
6.759467,-14.999390,0.389099,-1.026179,-0.446671,-6.732999,7.115587,-43.417519
6.775051,-16.265869,0.419617,-1.400020,-0.493374,-6.520441,7.237733,-42.015545
6.790636,-18.043518,1.792908,-1.728083,-0.400567,-6.884484,7.035953,-44.376587
6.806231,-18.356323,1.548767,-1.400020,-0.023950,-6.870712,7.193425,-43.685532
6.821836,-18.508911,-0.717163,-0.713374,0.000599,-6.777307,7.281442,-42.946301
6.837457,-17.333984,-2.021790,0.156377,0.009580,-6.850954,7.432927,-42.666866
6.853071,-15.670776,-3.845215,1.621221,0.118553,-6.991661,7.439514,-43.222469
6.868679,-12.924194,-4.516602,1.438115,-0.080233,-6.991062,7.393409,-43.397804
6.884261,-10.543823,-3.250122,0.911687,-0.180225,-6.927594,7.250906,-43.693714
6.899865,-8.781433,-1.220703,0.614141,-0.087418,-6.973698,7.141932,-44.317162
6.915471,-8.453369,0.122070,-0.522639,-0.098795,-7.037765,7.040743,-44.987881
6.931075,-8.041382,1.487732,-1.255061,-0.140109,-7.029382,6.969491,-45.245125
6.946681,-7.865906,3.021240,-1.270320,-0.007784,-7.065308,6.914405,-45.618446
6.962271,-7.675171,2.700806,-1.384761,-0.005389,-7.119794,6.917998,-45.823582
6.977868,-7.469177,1.502991,-1.056697,-0.058079,-7.174281,6.912011,-46.066658
6.993475,-6.210327,1.159668,-0.606562,-0.135319,-7.168293,6.979071,-45.766289
7.009078,-4.219055,0.686646,-0.202205,-0.166454,-7.191046,6.967096,-45.906212
7.024677,-2.449036,0.396729,-0.408198,-0.313748,-7.159911,7.019187,-45.568626
7.040260,-0.778198,1.419067,-0.499751,-0.386796,-7.122788,7.000028,-45.498020
7.055858,0.328064,1.991272,-0.652339,-0.296384,-7.132368,6.999429,-45.538971
7.071467,0.648499,1.510620,-0.820186,-0.249082,-7.132967,7.001824,-45.531574
7.087073,1.235962,0.991821,-0.370051,-0.265847,-7.126979,6.985657,-45.573734
7.102679,2.052307,0.289917,0.034307,-0.193398,-7.141948,7.019786,-45.494232
7.118286,2.822876,-0.495911,0.133489,-0.219144,-7.118597,7.025774,-45.376003
7.133902,3.608704,-1.106262,0.537847,-0.258662,-7.095245,7.061699,-45.135765
7.149508,4.432678,-1.419067,0.720952,-0.231119,-7.066505,7.080261,-44.944286
7.165103,4.859924,-1.655579,0.514959,-0.222737,-7.043154,7.114389,-44.711708
7.180705,4.821777,-1.930237,0.682805,-0.225132,-7.049740,7.152710,-44.584602
7.196314,4.837036,-1.594543,0.896428,-0.184417,-7.003636,7.178456,-44.293758
7.211903,5.119324,-1.495361,0.614141,-0.151485,-6.995852,7.173666,-44.281029
7.227504,5.355835,-1.327515,0.698064,-0.203577,-6.979087,7.167679,-44.236229
7.243102,5.439758,-1.327515,0.560735,-0.144899,-6.895261,7.201209,-43.756657
7.258708,5.142212,-1.152039,0.286077,-0.130529,-6.896459,7.293417,-43.397579
7.274315,4.394531,-0.915527,0.415776,-0.123942,-6.855145,7.440112,-42.656742
7.289925,3.524780,-0.373840,0.370000,-0.156874,-6.821016,7.292819,-43.085407
7.305534,2.807617,-0.587463,0.263188,-0.146096,-6.827003,7.347904,-42.895435
7.321155,2.464294,-0.953674,0.415776,-0.183818,-6.865324,7.401193,-42.848904
7.336773,2.441406,-0.808716,0.469182,-0.241897,-6.826405,7.400595,-42.688843
7.352390,0.106812,-0.816345,0.301335,-0.211959,-6.795269,7.398200,-42.567570
7.368006,1.502991,-0.442505,0.141118,-0.220342,-6.788084,7.395205,-42.548927
7.383617,0.747681,0.091553,-0.133540,-0.216151,-6.786288,7.349102,-42.719921
7.399232,-0.251770,0.328064,-0.156428,-0.158071,-6.822812,7.315571,-43.003902
7.414849,-1.037598,-0.045776,-0.011470,-0.113763,-6.837781,7.461069,-42.504055
7.430448,-2.090454,-0.648499,0.087712,-0.126337,-6.829398,7.324553,-42.996414
7.446071,-2.922058,-0.564575,0.110601,-0.130529,-6.823411,7.342515,-42.901356
7.461646,-3.875732,-0.083923,-0.080134,-0.177830,-6.822812,7.338923,-42.912834
7.477244,-4.608154,0.694275,-0.370051,-0.171843,-6.840176,7.347904,-42.950512
7.492838,-5.241394,0.724792,-0.499751,-0.198787,-6.852750,7.353891,-42.979721
7.508401,-5.645752,0.526428,-0.415828,-0.188608,-6.886280,7.343713,-43.158821
7.523985,-6.088257,0.267029,-0.293757,-0.205972,-6.906039,7.344910,-43.236080
7.539573,-6.637573,0.251770,-0.385310,-0.235311,-6.886878,7.288029,-43.378963
7.555171,-7.614136,0.656128,-0.515010,-0.258662,-6.940767,7.236536,-43.804863
7.570779,-8.453369,0.785828,-0.629451,-0.195194,-6.962322,7.204802,-44.019444
7.586386,-9.170532,0.495911,-0.652339,-0.150287,-6.979686,7.222166,-44.021835
7.602004,-9.506226,-0.190735,-0.614192,-0.144899,-7.003636,7.204203,-44.191231
7.617588,-9.994507,-0.534058,-0.209834,-0.295186,-7.014413,7.297010,-43.868771
7.633191,-9.994507,-0.564575,-0.186946,-0.210762,-7.015012,7.172469,-44.364140
7.648797,-10.902405,-0.442505,-0.103022,-0.204774,-7.115603,7.062298,-45.215416
7.664400,-10.887146,-0.312805,-0.087764,-0.214953,-7.197034,6.990448,-45.834236
7.680012,-11.627197,0.083923,-0.103022,-0.212558,-7.144343,6.970090,-45.707325
7.695626,-11.344910,0.213623,-0.255610,-0.152084,-7.191645,6.994638,-45.795624
7.711242,-11.772156,0.656128,-0.484492,-0.304167,-7.192244,6.958115,-45.947918
7.726854,-11.482239,1.045227,-0.591304,-0.166454,-7.238946,6.956318,-46.140614
7.742460,-11.787415,1.457214,-0.850703,-0.138312,-7.271878,6.885665,-46.562622
7.758051,-11.863708,1.625061,-1.056697,-0.286205,-7.328161,6.835968,-46.990181
7.773633,-12.016296,1.907349,-1.338984,-0.163460,-7.325167,6.809025,-47.091358
7.789220,-11.589050,2.120972,-1.316096,-0.191003,-7.407197,6.788068,-47.497383
7.804801,-11.512756,2.273560,-1.514460,-0.238304,-7.365284,6.819203,-47.204708
7.820386,-11.695862,2.449036,-1.438166,-0.273032,-7.404802,6.735977,-47.707935
7.835967,-12.016296,2.464294,-1.499202,-0.293390,-7.412585,6.744958,-47.699898
7.851549,-12.367249,2.258301,-1.392390,-0.277822,-7.459288,6.698854,-48.074402
7.867113,-12.702942,0.007629,-1.026179,-0.240101,-7.485035,6.715020,-48.103893
7.882688,-12.199402,1.594543,-1.087214,-0.226329,-7.549700,6.672509,-48.529396
7.898268,-11.833191,1.281738,-1.026179,-0.201780,-7.548503,6.619219,-48.752747
7.913849,-11.001587,1.373291,-1.079585,-0.270038,-7.671846,6.523418,-49.625278
7.929424,-10.643005,1.380920,-0.865962,-0.100591,-7.874824,6.353372,-51.103569
7.945005,-8.346558,-1.922607,0.316594,-0.035327,-7.942483,6.092315,-52.509838
7.960601,-5.371094,-2.479553,1.323674,-0.007185,-7.801178,6.007292,-52.401951
7.976175,-3.135681,-4.928589,1.964543,-0.089813,-7.944879,5.889337,-53.451397
7.991762,-1.663208,-6.278992,2.162908,-0.205373,-7.850874,5.946817,-52.857090
8.007346,-0.694275,-4.920959,1.689885,-0.353864,-7.782017,6.030045,-52.229000
8.022933,-0.007629,-2.380371,0.659917,-0.299377,-7.679031,5.985737,-52.063904
8.038528,0.335693,0.015259,-0.476863,-0.343087,-7.710765,6.415643,-50.238289
8.054154,1.762390,2.166748,-1.438166,-0.335303,-7.742499,6.551560,-49.762714
8.069765,4.272461,2.784729,-1.369502,-0.273032,-7.701185,6.644966,-49.210743
8.085359,6.256104,2.105713,-1.270320,-0.204774,-7.670050,6.632991,-49.147041
8.100964,6.813049,1.007080,-0.270869,-0.119751,-7.584428,6.656941,-48.726196
8.116560,6.629944,-0.785828,0.530217,-0.073048,-7.526947,6.589880,-48.797688
8.132165,5.615234,-2.388000,0.698064,-0.079036,-7.596403,6.573115,-49.130589
8.147751,4.043579,-3.715515,1.392339,-0.132924,-7.641310,6.521622,-49.520267
8.163365,3.463745,-3.463745,1.384709,-0.190404,-7.386240,6.550961,-48.429722
8.178949,1.960754,-2.334595,0.858281,-0.183818,-7.359895,6.574313,-48.226803
8.194555,1.068115,-1.342773,0.225042,-0.170046,-7.514374,6.641373,-48.529026
8.210164,0.823975,0.000000,0.064824,-0.170645,-7.494615,6.740767,-48.031326
8.225781,0.862122,0.205994,-0.156428,-0.128732,-7.531139,6.762322,-48.078857
8.241388,0.968933,0.617981,-0.286128,-0.097597,-7.524553,6.812018,-47.845287
8.257008,0.999451,0.793457,-0.316646,-0.079634,-7.489226,6.697656,-48.193558
8.272629,0.640869,1.182556,-0.377681,-0.064666,-7.517966,6.703045,-48.279690
8.288243,0.167847,0.534058,-0.339534,-0.114362,-7.532935,6.652750,-48.550507
8.303838,-0.129700,0.625610,-0.217463,-0.181423,-7.523954,6.597065,-48.755444
8.319460,-0.640869,1.174927,-0.438716,-0.228126,-7.389234,6.523418,-48.561050
8.335069,-1.594543,1.411438,-0.858333,-0.275427,-7.549700,6.545572,-49.074791
8.350690,-1.960754,1.876831,-0.667598,-0.296384,-7.580237,6.559344,-49.129654
8.366300,-2.288818,1.640320,-0.453975,-0.254471,-7.569459,6.564134,-49.068604
8.381908,-2.578735,0.961304,-0.492122,-0.216749,-7.575447,6.629398,-48.810295
8.397511,-2.304077,0.129700,-0.095393,-0.220342,-7.606582,6.648558,-48.844814
8.413098,-1.571655,-0.282288,0.179265,-0.225731,-7.614366,6.629997,-48.953194
8.428695,-0.541687,-0.343323,-0.034358,-0.225731,-7.625742,6.594072,-49.149632
8.444305,0.061035,-0.328064,-0.103022,-0.211959,-7.634724,6.500666,-49.586918
8.459917,0.511169,0.175476,-0.103022,-0.202379,-7.520361,6.427019,-49.482277
8.475530,0.991821,0.503540,-0.232722,-0.201182,-7.516170,6.347384,-49.819000
8.491146,0.984192,0.312805,-0.156428,-0.209564,-7.705377,6.361156,-50.458702
8.506754,0.946045,0.152588,-0.034358,-0.215552,-7.641909,6.399477,-50.056568
8.522365,1.029968,-0.190735,0.095342,-0.223934,-7.624545,6.465339,-49.703255
8.537982,1.235962,-0.228882,0.057195,-0.239502,-7.626341,6.495876,-49.576694
8.553595,1.770020,-0.228882,0.125859,-0.231119,-7.651489,6.546770,-49.449024
8.569201,2.479553,-0.251770,0.179265,-0.203577,-7.638915,6.550363,-49.386940
8.584821,3.204346,-0.595093,0.186895,-0.186812,-7.616162,6.560541,-49.258480
8.600430,3.570557,-0.717163,0.209783,-0.213755,-7.586225,6.585090,-49.040955
8.616028,3.639221,-0.343323,0.278447,-0.216151,-7.543114,6.602454,-48.804489
8.631632,3.082275,-0.030518,0.072454,-0.200583,-7.528145,6.592276,-48.791889
8.647239,2.693176,-0.099182,0.072454,-0.213755,-7.551497,6.592276,-48.879818
8.662849,2.258301,-0.381470,0.179265,-0.188608,-7.543114,6.613831,-48.755596
8.678460,2.388000,-1.007080,0.255559,-0.201182,-7.536528,6.633589,-48.646034
8.694071,2.639771,-0.968933,-1.552607,-0.209564,-7.541916,6.652750,-48.584373
8.709685,2.784729,-0.640869,0.293706,-0.199984,-7.504794,6.665922,-48.387814
8.725293,2.708435,-0.320435,0.194524,-0.186213,-7.484436,6.655145,-48.356575
8.740906,2.143860,-0.114441,0.057195,-0.178429,-7.485633,6.640176,-48.425182
8.756516,1.922607,-0.297546,0.102971,-0.173639,-7.536528,6.661132,-48.528259
8.772134,1.884460,-0.411987,0.072454,-0.196392,-7.517966,6.696459,-48.307671
8.787739,2.517700,-0.640869,0.141118,-0.192799,-7.503596,6.688076,-48.288868
8.803333,2.510071,-0.480652,0.278447,-0.237706,-7.508386,6.665323,-48.403984
8.818927,2.120972,-0.259399,0.057195,-0.246088,-7.461683,6.647361,-48.303238
8.834530,1.327515,-0.267029,-0.003840,-0.269440,-7.442523,6.653947,-48.201866
8.850154,0.999451,-0.198364,-0.072505,-0.258662,-7.494016,6.617423,-48.554607
8.865751,1.014709,-0.259399,-0.019099,-0.220342,-7.541916,6.692267,-48.415974
8.881365,1.533508,-0.495911,-0.064875,-0.205972,-7.548503,6.700051,-48.407742
8.896973,2.220154,-0.701904,0.141118,-0.202978,-7.508985,6.685681,-48.319489
8.912579,2.555847,-0.877380,0.286077,-0.205972,-7.485633,6.637781,-48.435440
8.928177,2.059937,-0.816345,0.156377,-0.226329,-7.473659,6.606047,-48.526188
8.943785,1.487732,-0.892639,0.164006,-0.225731,-7.484436,6.629398,-48.466831
8.959393,1.495361,-0.762939,0.240300,-0.228724,-7.506590,6.632991,-48.535465
8.975012,1.770020,-0.640869,0.194524,-0.191602,-7.555688,6.662330,-48.595329
8.990624,2.227783,-0.549316,0.255559,-0.162263,-7.497010,6.666521,-48.355736
9.006237,2.876282,-0.648499,2.269719,-0.155676,-7.489226,6.656941,-48.367096
9.021840,3.135681,-0.526428,0.293706,-0.156275,-7.464078,6.643768,-48.327755
9.037416,2.944946,-0.526428,0.171636,-0.173639,-7.478448,6.674305,-48.251987
9.053011,3.021240,-0.289917,0.133489,-0.181423,-7.490424,6.665323,-48.335842
9.068576,3.662109,-0.267029,0.164006,-0.164059,-7.508386,6.673706,-48.368229
9.084149,4.425049,-0.297546,0.240300,-0.180225,-7.501800,6.682089,-48.307541
9.099760,5.012512,-0.549316,0.293706,-0.187410,-7.492220,6.662330,-48.355446
9.115335,5.332947,-0.480652,0.316594,-0.214953,-7.446714,6.682089,-48.097725
9.130923,5.599976,-0.396729,0.331853,-0.226329,-7.448511,6.552159,-48.663197
9.146505,7.713318,-0.328064,0.186895,-0.232916,-7.428752,6.722205,-47.858360
9.162092,6.233215,0.144958,0.148748,-0.207768,-7.438332,6.731186,-47.857040
9.177676,7.141113,-0.076294,0.270818,-0.209564,-7.420968,6.738970,-47.757458
9.193262,7.720947,-0.556946,0.354741,-0.216749,-7.397616,6.726995,-47.718300
9.208849,7.980347,-0.671387,0.484441,-0.222737,-7.371870,6.761723,-47.471924
9.224423,8.232117,-0.686646,0.530217,-0.213157,-7.334148,6.772501,-47.279995
9.240012,8.216858,-0.778198,0.431035,-0.207169,-7.314390,6.868301,-46.801529
9.255618,8.575439,-1.350403,0.522588,-0.227527,-7.326365,6.905424,-46.694172
9.271213,9.033203,-1.449585,0.591252,-0.249681,-7.265292,6.893449,-46.504379
9.286827,9.498596,-1.258850,0.614141,-0.236508,-7.275471,6.895246,-46.536980
9.302441,9.552002,-1.167297,0.553105,-0.213157,-7.251520,6.990448,-46.050182
9.318054,9.712219,-1.014709,0.362371,-0.205972,-7.232360,6.889258,-46.391800
9.333648,10.032654,-0.869751,0.171636,-0.210762,-7.225175,6.914405,-46.259090
9.349250,10.269165,-0.778198,0.408147,-0.155078,-7.226972,6.928776,-46.206776
9.364854,10.612488,-1.075745,0.400518,-0.157473,-7.191046,6.959911,-45.935760
9.380471,10.368347,-0.633240,0.461553,-0.180824,-7.117998,7.023379,-45.383358
9.396073,10.604858,-0.160217,0.575994,-0.185614,-7.083270,7.045533,-45.153034
9.411664,10.375977,-0.129700,0.286077,-0.161664,-7.088659,7.078465,-45.041233
9.427260,11.009216,-0.068665,0.492070,-0.173639,-7.094646,7.123970,-44.881840
9.442866,11.650085,-0.328064,0.583623,-0.001796,-7.090456,7.146722,-44.773560
9.458475,12.565613,-0.770569,0.400518,-0.010179,-7.046147,7.185043,-44.440815
9.474082,12.847900,-1.281738,0.682805,-0.206570,-6.934779,7.204802,-43.905964
9.489668,12.809753,-1.434326,0.919316,-0.263452,-6.930588,7.207197,-43.879135
9.505259,12.313843,-1.686096,1.117681,-0.244891,-6.904243,7.164086,-43.941860
9.520854,11.802673,-1.815796,0.934575,-0.250878,-6.889274,7.210190,-43.696121
9.536441,11.787415,-1.556396,0.934575,-0.228126,-6.897656,7.279047,-43.458965
9.552053,11.909485,-1.541138,0.942205,-0.217947,-6.839577,7.331139,-43.013287
9.567638,12.031555,-1.365662,0.850652,-0.202978,-6.798862,7.363472,-42.716995
9.583242,11.825562,-1.472473,0.865911,-0.176034,-6.710845,7.435921,-42.065937
9.598848,11.474609,-1.380920,0.919316,-0.179626,-6.707851,7.465859,-41.938747
9.614434,11.184692,-1.022339,0.759099,-0.165256,-6.706055,7.450291,-41.990578
9.630039,11.360168,-0.587463,0.545476,-0.165855,-6.673722,7.493402,-41.688683
9.645633,11.924744,0.030518,0.324224,-0.199385,-6.706055,7.471846,-41.908287
9.661245,12.123108,0.244141,0.118230,-0.150886,-6.671926,7.472445,-41.760727
9.676850,12.405396,0.534058,0.141118,-0.111967,-6.613248,7.502383,-41.395737
9.692439,11.779785,-0.175476,0.339482,-0.101190,-6.552773,7.468254,-41.264267
9.708039,11.108398,-0.564575,0.408147,-0.161065,-6.585106,7.522740,-41.197609
9.723643,11.367798,-0.518799,0.606511,-0.185614,-6.586304,7.522740,-41.202770
9.739251,12.031555,-0.450134,0.553105,-0.206570,-6.598877,7.531722,-41.223049
9.754857,12.817383,-0.610352,0.507329,-0.232317,-6.533014,7.559265,-40.834869
9.770469,12.947083,1.869202,0.446294,-0.260458,-6.492299,7.626924,-40.405567
9.786074,13.412476,0.259399,0.247930,-0.235909,-6.427634,7.619739,-40.149319
9.801692,12.916565,0.648499,-0.171687,-0.268242,-6.438411,7.629319,-40.161148
9.817307,13.931274,0.953674,-0.179316,-0.272433,-6.439010,7.671232,-40.009125
9.832920,14.610291,0.938416,-0.232722,-0.223336,-6.394702,7.678417,-39.788044
9.848533,15.693665,0.381470,-0.148799,-0.246687,-6.397696,7.751465,-39.534668
9.864153,15.975952,-0.595093,0.316594,-0.220941,-6.271358,7.783798,-38.858181
9.879771,16.685486,-0.946045,0.728582,-0.258063,-6.248007,7.763440,-38.827068
9.895361,17.364502,-1.274109,1.155828,-0.198188,-6.283334,7.737095,-39.080227
9.910968,17.227173,-1.434326,0.965093,-0.233514,-6.169570,7.841877,-38.193779
9.926605,18.280029,-1.548767,0.911687,-0.246687,-6.207292,7.847864,-38.342342
9.942218,18.241882,-0.968933,0.781987,-0.210163,-6.059998,7.907141,-37.466396
9.957835,19.538879,-0.823975,0.827764,-0.216151,-6.110892,7.949653,-37.549458
9.973450,19.279480,-0.587463,0.919316,-0.132924,-5.970784,7.964023,-36.859615
9.989068,20.195007,-0.450134,0.835393,-0.061073,-5.966592,8.001145,-36.712528
10.004685,20.927429,-0.862122,0.789617,-0.110770,-5.933661,8.040664,-36.425716
10.020298,20.896912,-0.778198,0.797246,-0.147294,-5.827681,8.132872,-35.623825
10.035918,22.262573,-0.946045,1.033757,-0.168849,-5.841453,8.126884,-35.707874
10.051535,22.491455,-0.679016,0.797246,-0.216151,-5.723498,8.140656,-35.110126
10.067155,23.208618,-0.549316,0.987981,-0.216749,-5.711523,8.172390,-34.948944
10.082770,22.659302,-0.350952,0.888799,-0.260458,-5.531298,8.219092,-33.939823
10.098383,22.026062,-0.358582,1.102422,-0.197589,-5.492379,8.361596,-33.299217
10.113989,21.591187,-0.900269,1.468633,-0.008383,-5.451065,8.417280,-32.927258
10.129610,22.216797,-1.083374,1.750920,-0.101788,-5.328320,8.392732,-32.410366
10.145209,21.499634,-0.984192,1.056646,-0.096400,-5.268444,8.414287,-32.051949
10.160825,21.163940,-0.396729,0.606511,-0.308359,-5.304369,8.577746,-31.732121
10.176440,21.820068,0.434875,0.553105,-0.289797,-5.275629,8.610080,-31.496933
10.192035,23.147583,0.839233,-0.362422,-0.275427,-5.206174,8.605888,-31.172045
10.207643,25.413513,1.373291,-0.316646,-0.295785,-5.152884,8.593913,-30.946774
10.223245,25.024414,1.129150,-0.217463,-0.267045,-4.899013,8.505298,-29.941746
10.238853,24.810791,-0.518799,-0.019099,-0.312550,-5.115163,8.466378,-31.139267
10.254439,24.520874,-1.060486,0.789617,-0.493374,-4.930747,8.353812,-30.550766
10.270054,24.635315,-1.335144,1.346563,-0.279020,-4.991819,8.567568,-30.226849
10.285658,25.001526,-2.471924,2.101872,-0.382604,-4.801415,8.602296,-29.168295
10.301246,24.002075,-4.470825,3.658269,-0.267045,-4.809199,8.841199,-28.544125
10.316854,25.238037,-6.156921,4.177068,-0.389191,-4.634962,8.772941,-27.848600
10.332442,25.108337,-5.912781,4.131291,0.042512,-4.457730,8.987894,-26.380054
10.348051,25.939941,-5.767822,3.772710,0.275427,-4.066743,8.951968,-24.431578
10.363650,25.848389,-5.111694,3.383611,-0.234113,-4.423002,9.086688,-25.954794
10.379253,23.559570,-3.578186,3.459905,-0.061672,-3.942202,9.226198,-23.136219
10.394852,23.246765,-2.410889,3.353093,0.222737,-4.044589,9.150156,-23.846581
10.410497,20.118713,-2.052307,2.094243,0.122745,-3.731441,9.095670,-22.305578
10.426102,17.387390,-1.609802,1.666997,-0.026944,-3.840414,9.103454,-22.873100
10.441710,15.174866,-0.068665,0.652288,0.003593,-3.720663,9.123212,-22.186804
10.457314,13.229370,0.000000,-0.362422,-0.104183,-3.564388,9.074115,-21.445314
10.472922,10.765076,1.037598,-0.904109,-0.216151,-3.982918,9.408818,-22.943792
10.488523,8.140564,1.838684,-0.888850,-0.305365,-3.778143,9.361517,-21.978134
10.504136,6.683350,1.182556,-1.056697,-0.246687,-3.661985,9.246555,-21.605436
10.519744,4.463196,1.075745,-0.652339,-0.255070,-3.610492,9.215421,-21.394651
10.535359,1.098633,0.862122,-0.606562,-0.211959,-3.658991,9.272303,-21.534943
10.550964,-0.633240,0.442505,-0.515010,-0.174836,-3.725453,9.304036,-21.821783
10.566574,-0.526428,0.503540,-0.728633,-0.136516,-3.851192,9.273499,-22.552622
10.582170,-0.831604,0.747681,-0.888850,-0.180824,-3.855383,9.145965,-22.857330
10.597784,-1.953125,1.068115,-1.255061,-0.168849,-3.912863,9.116027,-23.230413
10.613390,-2.838135,1.586914,-1.247432,-0.141905,-4.024830,9.160336,-23.719528
10.629005,-3.280640,1.296997,-1.415278,-0.139510,-3.975134,8.971727,-23.896858
10.644610,-4.135132,1.617432,-1.445796,-0.073647,-4.270320,9.053757,-25.251507
10.660233,-4.318237,1.098633,-1.430537,-0.131726,-3.917653,8.945981,-23.649731
10.675840,-3.959656,1.525879,-1.552607,-0.144300,-4.291875,9.042380,-25.390882
10.691436,-3.334045,2.189636,-1.636531,-0.251477,-4.216432,9.095670,-24.870777
10.707032,-2.273560,2.075195,-2.018001,-0.146695,-4.055367,9.023819,-24.199482
10.722641,-2.113342,2.418518,-2.117183,-0.312550,-4.283493,8.999868,-25.452141
10.738263,-1.991272,2.159119,-2.040889,-0.263452,-4.148773,9.008251,-24.728554
10.753870,-1.754761,2.426147,-2.079036,-0.252076,-4.155359,9.025616,-24.721163
10.769477,-1.167297,2.067566,-1.804377,-0.283211,-4.178112,9.013041,-24.870687
10.785085,-0.091553,0.907898,0.011418,-0.591570,-4.794230,7.766434,-31.687092
10.800705,-2.639771,1.739502,-3.406550,-0.646655,-5.905519,8.482545,-34.845509
10.816313,-0.297546,1.586914,-1.239802,-0.601150,-4.507427,9.007652,-26.583370
10.831927,-1.052856,1.228333,-1.033809,-0.265248,-4.224814,8.841199,-25.541056
10.847533,-1.235962,0.106812,-1.064326,-0.319136,-4.205056,8.921432,-25.236525
10.863156,1.701355,0.312805,0.240300,-0.179626,-4.169130,8.912451,-25.069592
10.878749,0.770569,-0.183105,0.072454,-0.199984,-4.045188,8.943585,-24.337263
10.894345,-0.335693,-0.625610,2.239202,-0.262255,-4.190685,8.986097,-25.002090
10.909954,0.610352,-0.358582,0.385259,-0.276026,-4.262536,9.037590,-25.250683
10.925562,1.655579,-0.610352,0.530217,-0.256866,-4.205056,9.026214,-24.979471
10.941169,2.159119,-1.052856,0.720952,-0.263452,-4.185895,9.031603,-24.866404
10.956779,2.517700,-1.365662,0.865911,-0.263452,-4.144581,9.042380,-24.624386
10.972395,2.456665,-1.388550,0.919316,-0.235909,-4.101471,9.062140,-24.351227
10.988014,2.632141,-1.586914,0.980352,-0.250280,-4.096082,9.049565,-24.352816
11.003605,2.120972,-1.556396,0.995610,-0.235311,-4.048780,9.004060,-24.211622
11.019217,1.739502,-1.419067,1.071904,-0.243693,-4.082311,9.052559,-24.273306
11.034833,1.663208,-1.358032,0.904058,-0.244891,-4.084107,9.078305,-24.221811
11.050444,1.708984,-0.877380,0.705693,-0.243693,-4.071533,9.071120,-24.172720
11.066051,1.312256,-0.709534,0.347112,-0.243094,-4.047583,9.065732,-24.059359
11.081655,1.342773,-0.335693,0.072454,-0.174836,-4.055965,9.089682,-24.047215
11.097262,1.304626,-0.274658,0.148748,-0.121547,-4.088897,9.080701,-24.241291
11.112857,1.579285,-0.549316,0.370000,-0.117356,-4.096681,9.091478,-24.256647
11.128467,1.731873,-0.610352,0.316594,-0.174238,-4.046984,9.079503,-24.023848
11.144074,1.342773,-0.587463,0.217412,-0.223934,-4.016448,9.073516,-23.876871
11.159690,1.129150,-0.251770,-0.103022,-0.279619,-4.045188,9.090281,-23.989134
11.175307,1.289368,0.358582,-0.370051,-0.255070,-4.073928,9.101657,-24.113430
11.190923,1.434326,0.732422,-0.713374,-0.242496,-4.062552,9.093274,-24.073397
11.206519,1.686096,0.503540,-0.492122,-0.203577,-4.065546,9.074713,-24.132769
11.222144,1.724243,0.236511,-0.202205,-0.211959,-4.040997,9.075911,-24.000742
11.237759,1.281738,-0.053406,-0.019099,-0.229323,-4.015849,9.026813,-23.983328
