Timestamp,Gyro_X_dps,Gyro_Y_dps,Gyro_Z_dps,Accel_X_mps2,Accel_Y_mps2,Accel_Z_mps2,Tilt_Angle_Deg
0.006450,0.488281,-0.183105,0.019048,-0.016166,-6.540200,-7.552111,-139.107132
0.022149,0.381470,-0.259399,0.041936,-0.016166,-6.569539,-7.553308,-138.984680
0.037755,0.373840,-0.343323,0.003789,-0.015568,-6.549181,-7.533550,-138.998413
0.053369,0.343323,-0.244141,-0.103022,0.007784,-6.551576,-7.529358,-138.972244
0.068971,0.434875,-0.190735,0.064824,-0.011376,-6.561755,-7.532951,-138.941742
0.084569,0.328064,-0.236511,-0.034358,-0.013771,-6.565347,-7.522173,-138.885574
0.100155,0.396729,-0.190735,-0.095393,-0.009580,-6.533613,-7.410805,-138.599518
0.115754,0.228882,-0.244141,0.026677,-0.026345,-6.570736,-7.510797,-138.819305
0.131380,0.244141,-0.198364,-0.011470,-0.013771,-6.548582,-7.543130,-139.037048
0.146980,0.259399,-0.267029,0.125859,-0.016765,-6.539601,-7.494032,-138.890701
0.162574,0.335693,-0.160217,-0.034358,-0.025746,-6.552175,-7.555704,-139.068741
0.178133,0.205994,-0.305176,0.064824,-0.015568,-6.552175,-7.540136,-139.010254
0.193708,0.267029,-0.213623,0.072454,0.004191,-6.543193,-7.529957,-139.010834
0.209295,0.091553,-0.297546,0.141118,-0.037123,-6.546187,-7.531155,-139.002365
0.224852,0.289917,-0.274658,-0.110652,0.001796,-6.563551,-7.519180,-138.882034
0.240429,0.335693,-0.228882,0.034307,-0.007185,-6.571934,-7.516186,-138.834503
0.256007,0.205994,-0.259399,-0.003840,0.143701,-6.556366,-7.534149,-138.969574
0.271584,0.213623,-0.167847,0.041936,-0.149689,-6.559360,-7.533550,-138.954346
0.287167,0.221252,-0.320435,0.041936,-0.012574,-6.545588,-7.555704,-139.097260
0.302744,0.228882,-0.228882,0.080083,-0.001796,-6.569539,-7.540735,-138.937393
0.318322,0.358582,-0.328064,-0.164058,-0.020956,-6.562354,-7.545525,-138.986465
0.333914,0.411987,-0.259399,-0.080134,-0.022154,-6.552773,-7.512593,-138.903809
0.349485,0.312805,-0.305176,-0.041987,-0.003593,-6.562354,-7.541933,-138.972961
0.365071,0.419617,-0.289917,0.041936,-0.016765,-6.555169,-7.526365,-138.945419
0.380664,0.511169,-0.221252,0.034307,0.145497,-6.547983,-7.541933,-139.035156
0.396260,0.480652,-0.259399,0.080083,-0.016166,-6.553971,-7.526365,-138.950592
0.411865,0.297546,-0.205994,0.064824,0.142504,-6.570736,-7.547321,-138.957001
0.427476,0.389099,-0.251770,-0.003840,-0.009580,-6.556366,-7.523970,-138.931198
0.443087,0.480652,-0.366211,0.072454,-0.008383,-6.556366,-7.548519,-139.023621
0.458683,0.267029,-0.274658,0.087712,-0.003593,-6.567143,-7.520976,-138.873291
0.474287,0.434875,-0.305176,0.026677,-0.046703,-6.552175,-7.516186,-138.919968
0.489889,0.289917,-0.190735,-0.019099,0.002395,-6.568940,-7.541933,-138.944504
0.505477,0.381470,-0.404358,0.064824,-0.011975,-6.544990,-7.557500,-139.106598
0.521070,0.228882,-0.175476,0.041936,-0.019759,-6.559958,-7.544327,-138.992325
0.536629,0.511169,-0.144958,0.102971,-0.006586,-6.573131,-7.530556,-138.883545
0.552202,0.167847,-0.236511,-0.034358,-0.023950,-6.565946,-7.532352,-138.921356
0.567800,0.274658,-0.083923,0.110601,-0.004191,-6.570736,-7.528760,-138.887131
0.583375,0.434875,-0.282288,0.019048,-0.007784,-6.546786,-7.539537,-139.031326
0.598949,0.328064,-0.144958,-0.011470,-0.005389,-6.558761,-7.503612,-138.843918
0.614505,0.274658,-0.183105,0.057195,0.001796,-6.562354,-7.525766,-138.912064
0.630069,0.282288,-0.274658,0.064824,-0.001796,-6.541996,-7.549118,-139.088104
0.645628,0.389099,-0.167847,0.141118,-0.021555,-6.571934,-7.532352,-138.895493
0.661205,0.267029,-0.305176,0.095342,-0.023351,-6.569539,-7.513192,-138.833542
0.676772,0.259399,-0.320435,-0.072505,-0.007784,-6.565946,-7.529957,-138.912338
0.692356,0.396729,-0.335693,-0.019099,-0.019759,-6.558761,-7.521574,-138.911804
0.707943,0.343323,-0.282288,0.148748,-0.009580,-6.561755,-7.535346,-138.950760
0.723521,0.473022,-0.236511,0.003789,-0.027543,-6.563551,-7.523970,-138.900116
0.739103,0.328064,-0.167847,0.003789,-0.023950,-6.553971,-7.541933,-139.009232
0.754658,0.396729,-0.297546,0.095342,0.010179,-6.570138,-7.529358,-138.891968
0.770234,0.411987,-0.259399,0.034307,-0.016765,-6.568341,-7.540735,-138.942581
0.785864,0.450134,-0.320435,-0.034358,0.001198,-6.549181,-7.527562,-138.975861
0.801474,0.473022,-0.274658,0.011418,-0.016765,-6.577921,-7.522772,-138.833511
0.817062,0.358582,-0.297546,0.064824,0.007185,-6.549181,-7.538939,-139.018707
0.832656,0.427246,-0.137329,-0.041987,-0.011376,-6.550378,-7.523371,-138.954865
0.848253,0.297546,-0.411987,0.041936,-0.010179,-6.556366,-7.532352,-138.962799
0.863849,0.305176,-0.282288,0.064824,-0.005389,-6.561156,-7.533550,-138.946579
0.879437,0.450134,-0.282288,0.072454,-0.005389,-6.555169,-7.545525,-139.017548
0.895025,0.328064,-0.221252,-0.041987,-0.021555,-6.575526,-7.550315,-138.947571
0.910595,0.381470,-0.358582,0.019048,-0.019759,-6.547385,-7.509600,-138.915848
0.926171,0.389099,-0.389099,-0.011470,-0.009580,-6.559958,-7.555105,-139.032822
0.941765,0.541687,-0.228882,-0.003840,-0.007784,-6.550378,-7.514390,-138.920959
0.957361,0.320435,-0.221252,0.080083,-0.008383,-6.560557,-7.503013,-138.833893
0.972960,0.396729,-0.434875,0.034307,-0.011975,-6.539002,-7.525167,-139.010956
0.988556,0.411987,-0.312805,0.057195,-0.008981,-6.542594,-7.523371,-138.988602
1.004150,0.305176,-0.213623,0.156377,-0.031734,-6.564749,-7.559296,-139.027847
1.019743,0.389099,-0.404358,-0.057246,-0.010778,-6.561755,-7.522772,-138.903366
1.035340,0.305176,-0.305176,-0.011470,-0.038320,-6.564749,-7.523970,-138.894928
1.050947,0.358582,-0.259399,0.095342,-0.002994,-6.565347,-7.538340,-138.946503
1.066580,0.411987,-0.267029,0.064824,-0.031135,-6.582711,-7.532352,-138.848969
1.082193,0.450134,-0.175476,0.057195,-0.011975,-6.536008,-7.533550,-139.055527
1.097807,0.297546,-0.251770,0.019048,-0.032333,-6.558162,-7.523371,-138.921173
1.113413,0.274658,-0.373840,0.034307,-0.024549,-6.547983,-7.540735,-139.030640
1.129025,0.297546,-0.297546,0.019048,-0.008383,-6.550977,-7.530556,-138.979370
1.144629,0.350952,-0.122070,-0.080134,-0.010778,-6.536008,-7.517982,-138.996857
1.160261,0.297546,-0.312805,0.049565,-0.012574,-6.559958,-7.511995,-138.870453
1.175853,0.267029,-0.137329,-0.087764,-0.005389,-6.560557,-7.514988,-138.879166
1.191462,0.427246,-0.152588,0.095342,0.006586,-6.549181,-7.529957,-138.984879
1.207088,0.473022,-0.083923,0.003789,0.000000,-6.556366,-7.541933,-138.998856
1.222685,0.373840,-0.198364,-0.011470,-0.004790,-6.559958,-7.517982,-138.893051
1.238262,0.335693,-0.396729,0.064824,-0.028740,-6.542594,-7.555105,-139.107986
1.253866,0.373840,-0.358582,-0.003840,-0.017963,-6.561156,-7.516186,-138.881088
1.269453,0.610352,-0.274658,0.019048,-0.010778,-6.559958,-7.509001,-138.859131
1.285022,0.366211,-0.297546,-0.003840,-0.005389,-6.560557,-7.525167,-138.917572
1.300586,0.305176,-0.152588,0.072454,-0.014969,-6.571934,-7.526365,-138.872925
1.316164,0.488281,-0.373840,-0.011470,-0.010778,-6.570736,-7.528760,-138.887131
1.331731,0.244141,-0.167847,-0.041987,-0.014370,-6.568341,-7.546722,-138.965103
1.347323,0.373840,-0.312805,0.179265,-0.025746,-6.564749,-7.497026,-138.793076
1.362914,0.373840,-0.144958,-0.057246,-0.022753,-6.565946,-7.526365,-138.898788
1.378494,0.427246,-0.228882,-0.049617,-0.015568,-6.548582,-7.540136,-139.025803
1.394084,0.419617,-0.213623,-0.064875,-0.020358,-6.563551,-7.519180,-138.882034
1.409665,0.389099,-0.137329,0.026677,-0.010778,-6.553372,-7.498223,-138.846878
1.425253,0.373840,-0.267029,0.034307,-0.007185,-6.576125,-7.540136,-138.906723
1.440862,0.312805,-0.267029,0.072454,0.146695,-6.537206,-7.546124,-139.097626
1.456449,0.366211,-0.167847,0.087712,-0.010778,-6.556366,-7.528760,-138.949249
1.472026,0.228882,-0.244141,0.110601,0.149090,-6.538404,-7.537741,-139.060898
1.487629,0.312805,-0.419617,0.026677,-0.006586,-6.595884,-7.533550,-138.796738
1.503222,0.274658,-0.297546,0.057195,0.136516,-6.534212,-7.536543,-139.074585
1.518800,0.312805,-0.289917,0.080083,-0.016166,-6.579119,-7.521574,-138.823822
1.534389,0.175476,-0.282288,-0.034358,-0.138312,-6.559360,-7.521574,-138.909210
1.549970,0.312805,-0.343323,0.026677,-0.011376,-6.559360,-7.546722,-139.003906
1.565555,0.389099,-0.282288,0.064824,-0.020358,-6.567143,-7.528161,-138.900391
1.581144,0.442505,-0.289917,0.034307,-0.028141,-6.549181,-7.521574,-138.953293
1.596724,0.366211,-0.144958,-0.019099,-0.007784,-6.593489,-7.525167,-138.775421
1.612314,0.343323,-0.152588,0.102971,-0.002994,-6.555169,-7.544327,-139.013031
1.627872,0.335693,-0.259399,0.041936,-0.031734,-6.567742,-7.511995,-138.836777
1.643461,0.328064,-0.244141,0.041936,-0.015568,-6.543792,-7.531155,-139.012756
1.658986,0.389099,-0.320435,-0.011470,-0.019160,-6.553971,-7.518581,-138.921234
1.674593,0.427246,-0.205994,0.011418,-0.022753,-6.552773,-7.546722,-139.032425
1.690178,0.259399,-0.282288,0.110601,-0.014969,-6.554570,-7.523371,-138.936722
1.705766,0.335693,-0.305176,0.080083,-0.011975,-6.565946,-7.529358,-138.910080
1.721410,0.282288,-0.190735,-0.080134,-0.010179,-6.561156,-7.528760,-138.928528
1.737028,0.328064,-0.175476,0.064824,-0.013173,-6.551576,-7.533550,-138.988037
1.752598,0.190735,-0.480652,0.072454,-0.025746,-6.570736,-7.519778,-138.853241
1.768170,0.320435,-0.366211,0.034307,-0.011975,-6.548582,-7.519778,-138.949097
1.783733,0.312805,-0.221252,-0.003840,-0.024549,-6.568341,-7.531754,-138.908752
1.799306,0.358582,-0.228882,-0.049617,0.005389,-6.561755,-7.526964,-138.919174
1.814877,0.244141,-0.350952,0.026677,-0.026944,-6.583909,-7.523371,-138.809937
1.830456,0.267029,-0.373840,-0.034358,-0.001796,-6.553372,-7.531155,-138.971237
1.846024,0.259399,-0.190735,0.049565,-0.007185,-6.571934,-7.529957,-138.886459
1.861589,0.305176,-0.236511,0.041936,0.009580,-6.538404,-7.537142,-139.058670
1.877151,0.328064,-0.396729,0.080083,-0.010778,-6.561156,-7.522173,-138.903702
1.892723,0.190735,-0.129700,-0.003840,-0.018561,-6.564749,-7.526964,-138.906219
1.908282,0.160217,-0.175476,-0.026729,-0.019160,-6.573131,-7.506007,-138.790848
1.923862,0.358582,-0.183105,0.003789,0.000000,-6.567143,-7.531155,-138.911682
1.939420,0.282288,-0.297546,-0.041987,-0.016765,-6.565347,-7.531754,-138.921692
1.954984,0.396729,-0.274658,0.072454,-0.004191,-6.556965,-7.549118,-139.023285
1.970560,0.473022,-0.320435,0.102971,-0.026345,-6.552773,-7.520976,-138.935455
1.986120,0.427246,-0.434875,0.049565,-0.014370,-6.550378,-7.527562,-138.970657
2.001715,0.442505,-0.305176,-0.041987,-0.015568,-6.570138,-7.554506,-138.986588
2.017278,0.381470,-0.251770,0.171636,-0.003593,-6.549181,-7.523371,-138.960068
2.032860,0.282288,-0.328064,0.034307,-0.033530,-6.565347,-7.522173,-138.885574
2.048461,0.450134,-0.297546,-0.011470,-0.014969,-6.544391,-7.534747,-139.023682
2.064050,0.373840,-0.312805,0.026677,-0.006586,-6.553971,-7.528760,-138.959625
2.079634,0.328064,-0.381470,0.041936,0.001198,-6.532416,-7.514390,-138.998886
2.095222,0.381470,-0.213623,-0.034358,-0.001198,-6.566545,-7.536543,-138.934555
2.110804,0.320435,-0.160217,0.041936,-0.026944,-6.541397,-7.529358,-139.016373
2.126399,0.350952,-0.160217,-0.011470,-0.015568,-6.550977,-7.540735,-139.017685
2.141976,0.488281,-0.373840,0.118230,-0.017963,-6.570736,-7.531754,-138.898407
2.157576,0.457764,-0.320435,-0.057246,-0.010179,-6.563551,-7.513791,-138.861694
2.173162,0.320435,-0.190735,0.102971,-0.023950,-6.550378,-7.532352,-138.988724
2.188737,0.221252,-0.190735,0.064824,0.002395,-6.565347,-7.538340,-138.946503
2.204331,0.297546,-0.259399,0.057195,-0.031135,-6.558761,-7.534149,-138.959198
2.219932,0.350952,-0.152588,0.118230,0.002994,-6.543193,-7.522772,-138.983749
2.235511,0.335693,-0.221252,0.080083,-0.040117,-6.572532,-7.541334,-138.926727
2.251091,0.389099,-0.259399,0.003789,-0.020956,-6.536008,-7.531754,-139.048752
2.266677,0.450134,-0.251770,-0.003840,-0.017364,-6.559360,-7.536543,-138.965637
2.282258,0.328064,-0.358582,-0.072505,-0.012574,-6.556965,-7.528161,-138.944412
2.297847,0.228882,-0.411987,-0.041987,-0.022753,-6.543193,-7.523371,-138.986008
2.313426,0.373840,-0.198364,0.011418,-0.010179,-6.558761,-7.544926,-138.999756
2.329022,0.328064,-0.427246,0.026677,-0.019759,-6.573730,-7.481458,-138.695221
2.344602,0.274658,-0.442505,0.026677,-0.014969,-6.546187,-7.525766,-138.982056
2.360178,0.389099,-0.183105,0.156377,-0.010179,-6.569539,-7.528760,-138.892303
2.375767,0.328064,-0.205994,0.110601,-0.152682,-6.559360,-7.550315,-139.017426
2.391358,0.404358,-0.213623,-0.026729,-0.030536,-6.553971,-7.502415,-138.860138
2.406951,0.366211,-0.228882,0.049565,-0.010778,-6.559360,-7.539537,-138.976898
2.422516,0.251770,-0.152588,0.026677,0.125739,-6.550378,-7.549716,-139.054031
2.438091,0.450134,-0.129700,-0.011470,-0.016166,-6.568940,-7.525766,-138.883591
2.453674,0.480652,-0.267029,0.072454,0.002994,-6.575526,-7.514390,-138.812195
2.469247,0.358582,-0.228882,-0.057246,-0.021555,-6.572532,-7.532352,-138.892914
2.484814,0.411987,-0.198364,0.080083,-0.012574,-6.543792,-7.532352,-139.017258
2.500401,0.389099,-0.236511,-0.049617,-0.011376,-6.568940,-7.522772,-138.872314
2.515974,0.259399,-0.312805,0.125859,-0.008981,-6.547385,-7.549118,-139.064758
2.531540,0.366211,-0.282288,0.110601,0.011376,-6.549181,-7.516785,-138.935196
2.547112,0.335693,-0.274658,-0.011470,-0.016765,-6.555169,-7.509001,-138.879868
2.562681,0.411987,-0.328064,0.003789,-0.002395,-6.577322,-7.525167,-138.845139
2.578249,0.244141,-0.251770,0.133489,-0.006586,-6.561156,-7.520377,-138.896927
2.593816,0.457764,-0.236511,-0.003840,-0.019160,-6.565347,-7.541334,-138.957764
2.609396,0.274658,-0.213623,0.026677,0.009580,-6.555169,-7.513192,-138.895691
2.624957,0.358582,-0.282288,-0.003840,-0.013771,-6.544391,-7.513192,-138.942398
2.640541,0.312805,-0.282288,0.064824,0.011376,-6.553372,-7.523970,-138.944168
2.656120,0.411987,-0.312805,-0.026729,-0.023351,-6.550378,-7.525766,-138.963898
2.671681,0.244141,-0.320435,0.026677,-0.022154,-6.570138,-7.554506,-138.986588
2.687250,0.480652,-0.267029,0.102971,0.005988,-6.558162,-7.550315,-139.022598
2.702815,0.503540,-0.427246,0.034307,-0.022753,-6.549181,-7.540735,-139.025452
2.718383,0.350952,-0.205994,0.026677,0.005988,-6.548582,-7.517384,-138.940063
2.733946,0.259399,-0.251770,0.011418,0.017963,-6.575526,-7.546722,-138.934082
2.749504,0.267029,-0.282288,-0.003840,-0.017963,-6.560557,-7.537741,-138.964951
2.765072,0.419617,-0.213623,0.041936,-0.006586,-6.553971,-7.542531,-139.011475
2.780633,0.396729,-0.228882,0.087712,-0.017963,-6.554570,-7.517982,-138.916382
2.796195,0.282288,-0.312805,0.057195,-0.016166,-6.543792,-7.531155,-139.012756
2.811774,0.183105,-0.167847,-0.019099,-0.039518,-6.549780,-7.508402,-138.900940
2.827342,-0.221252,-0.236511,-0.240352,0.000599,-6.556965,-7.510797,-138.878860
2.842907,-0.045776,-0.297546,-0.202205,-0.018561,-6.553372,-7.552710,-139.052322
2.858477,0.297546,-0.236511,-0.057246,0.014969,-6.555767,-7.525766,-138.940567
2.874036,0.396729,-0.350952,0.011418,-0.002395,-6.592890,-7.537142,-138.823151
2.889591,0.610352,-0.190735,0.148748,0.007185,-6.556965,-7.511396,-138.881134
2.905171,0.358582,-0.350952,0.148748,-0.039518,-6.550378,-7.511995,-138.911926
2.920749,-0.030518,-0.213623,0.164006,-0.015568,-6.544990,-7.510797,-138.930756
2.936306,-0.175476,-0.312805,0.019048,-0.027543,-6.565347,-7.510797,-138.842606
2.951862,-0.061035,-0.343323,0.102971,-0.022154,-6.551576,-7.416792,-138.544434
2.967444,0.228882,-0.274658,0.125859,-0.015568,-6.573131,-7.688028,-139.470139
2.983001,0.274658,-0.267029,0.041936,-0.028740,-6.533613,-7.525167,-139.034348
2.998567,0.205994,-0.297546,0.057195,0.001796,-6.546187,-7.532951,-139.009125
3.014169,-0.045776,-0.244141,0.164006,-0.031135,-6.550977,-7.524569,-138.956787
3.029750,-0.129700,-0.091553,0.202153,-0.001796,-6.557563,-7.538939,-138.982407
3.045349,0.213623,-0.183105,0.102971,0.152682,-6.561156,-7.552710,-139.018646
3.060937,0.534058,-0.183105,0.141118,-0.016765,-6.554570,-7.543130,-139.011139
3.076518,0.511169,-0.259399,0.064824,-0.019759,-6.504274,-7.514390,-139.121323
3.092112,0.198364,-0.335693,0.095342,-0.021555,-6.506670,-7.513791,-139.108627
3.107715,0.000000,-0.289917,0.049565,-0.007185,-6.516848,-7.558099,-139.230972
3.123305,-0.022888,-0.160217,0.080083,-0.022154,-6.569539,-7.574864,-139.065506
3.138883,0.755310,-0.335693,0.110601,0.143701,-6.550977,-7.601209,-139.244125
3.154486,1.274109,-0.213623,-0.003840,-0.013173,-6.539601,-7.546722,-139.089478
3.170080,1.449585,-0.198364,0.102971,-0.016765,-6.479725,-7.528760,-139.282639
3.185675,1.121521,-0.267029,0.087712,-0.028740,-6.497688,-7.520976,-139.174881
3.201269,0.602722,-0.297546,-0.186946,-0.020358,-6.537805,-7.542531,-139.081512
3.216869,0.648499,-0.366211,-0.247981,-0.019759,-6.585705,-7.567679,-138.968872
3.232459,1.472473,-0.343323,-0.225093,-0.141306,-6.597680,-7.586839,-138.989075
3.248046,2.136230,-0.267029,-0.217463,0.004191,-6.555767,-7.532352,-138.965393
3.263626,2.265930,-0.259399,0.011418,0.000000,-6.547385,-7.493433,-138.854675
3.279203,1.411438,-0.236511,0.110601,0.003593,-6.536607,-7.483254,-138.862854
3.294785,0.587463,-0.213623,0.072454,-0.041314,-6.607859,-7.493433,-138.593506
3.310373,0.511169,-0.228882,-0.026729,-0.019759,-6.639593,-7.526365,-138.581970
3.325950,0.885010,-0.335693,-0.217463,0.003593,-6.641389,-7.562290,-138.709595
3.341550,1.319885,-0.259399,-0.171687,-0.005389,-6.594687,-7.488044,-138.629776
3.357139,1.159668,-0.381470,0.186895,0.015568,-6.558761,-7.500618,-138.832596
3.372735,0.549316,-0.183105,0.316594,0.002395,-6.559958,-7.475471,-138.732040
3.388318,0.038147,-0.106812,0.324224,-0.034129,-6.598279,-7.480261,-138.584747
3.403919,-0.312805,-0.305176,-0.003840,-0.034728,-6.627019,-7.506606,-138.561142
3.419504,-0.129700,-0.213623,-0.186946,-0.013771,-6.650969,-7.526365,-138.533310
3.435087,-0.068665,-0.267029,-0.148799,-0.000599,-6.596483,-7.504809,-138.685577
3.450673,-0.175476,-0.366211,0.125859,0.014969,-6.574328,-7.500618,-138.765274
3.466263,-0.389099,-0.175476,0.583623,0.025148,-6.550977,-7.489841,-138.825485
3.481856,-0.442505,-0.221252,0.469182,-0.041913,-6.576724,-7.544926,-138.922150
3.497445,-0.167847,-0.244141,0.400518,-0.034129,-6.574328,-7.537142,-138.903198
3.513025,-0.053406,-0.312805,-0.034358,-0.044907,-6.577322,-7.501217,-138.754608
3.528622,-0.076294,-0.228882,-0.118281,-0.018561,-6.534811,-7.509001,-138.968140
3.544202,-0.320435,-0.350952,0.087712,0.045505,-6.525231,-7.537142,-139.115845
3.559796,-0.205994,-0.175476,0.308965,-0.043110,-6.561156,-7.594024,-139.173340
3.575374,0.434875,-0.343323,0.141118,-0.015568,-6.501280,-7.579654,-139.379395
3.590952,1.052856,-0.305176,-0.362422,-0.086819,-6.510262,-7.544926,-139.210190
3.606535,1.106262,-0.099182,-0.621821,-0.058678,-6.509663,-7.511995,-139.088806
3.622110,1.052856,-0.450134,-0.942256,0.035327,-6.530021,-7.519778,-139.029617
3.637718,1.121521,-0.160217,-0.721003,0.058079,-6.572532,-7.532951,-138.895157
3.653320,1.228333,-0.175476,-0.080134,0.052690,-6.640192,-7.566481,-138.730453
3.668912,1.411438,-0.251770,0.057195,0.007784,-6.616840,-7.467687,-138.457031
3.684492,1.350403,-0.343323,0.286077,-0.041913,-6.617439,-7.467088,-138.452179
3.700085,0.999451,-0.343323,0.156377,-0.026345,-6.590495,-7.485650,-138.638763
3.715665,0.541687,-0.259399,-0.087764,-0.019160,-6.567143,-7.457508,-138.632599
3.731255,0.053406,-0.228882,-0.080134,0.000000,-6.583310,-7.525167,-138.819305
3.746886,0.068665,-0.244141,0.095342,0.044308,-6.604266,-7.501816,-138.640732
3.762476,0.495911,-0.228882,0.003789,-0.013173,-6.636000,-7.551512,-138.692154
3.778056,0.747681,-0.289917,0.133489,-0.020358,-6.612649,-7.542531,-138.758469
3.793631,0.885010,-0.320435,-0.072505,-0.002395,-6.570736,-7.501816,-138.785339
3.809224,0.656128,-0.297546,-0.072505,-0.032932,-6.512058,-7.495828,-139.017273
3.824804,0.335693,-0.244141,0.019048,0.000000,-6.546187,-7.489242,-138.843994
3.840402,0.259399,-0.114441,0.133489,-0.004790,-6.556965,-7.568277,-139.095169
3.855973,0.823975,-0.350952,0.156377,0.003593,-6.578520,-7.542531,-138.905396
3.871561,1.182556,-0.198364,0.080083,0.000599,-6.585705,-7.561691,-138.946411
3.887163,1.548767,-0.221252,-0.125911,-0.017963,-6.535409,-7.498223,-138.924774
3.902744,1.441956,-0.389099,-0.232722,-0.060474,-6.555169,-7.505408,-138.866272
3.918323,1.220703,-0.289917,-0.171687,-0.000599,-6.549780,-7.495828,-138.853363
3.933904,1.213074,-0.144958,-0.064875,0.003593,-6.558761,-7.517384,-138.895981
3.949497,1.495361,-0.091553,0.133489,0.029938,-6.518644,-7.431761,-138.744919
3.965089,2.479553,-0.129700,0.102971,0.014969,-6.539601,-7.573068,-139.188278
3.980675,3.288269,-0.152588,0.331853,-0.040715,-6.517447,-7.545525,-139.181198
3.996258,4.249573,-0.137329,0.232671,-0.055684,-6.471343,-7.419786,-138.905930
4.011898,4.440308,-0.175476,0.293706,-0.044907,-6.473139,-7.404818,-138.840729
4.027503,4.806519,-0.144958,0.095342,-0.040117,-6.516848,-7.531754,-139.132019
4.043124,5.210876,0.000000,-0.247981,-0.001796,-6.540798,-7.534149,-139.037003
4.058711,6.057739,-0.122070,-0.392939,0.014370,-6.599476,-7.526964,-138.756424
4.074338,6.973267,-0.205994,-0.278499,0.025746,-6.603069,-7.498822,-138.634552
4.089934,9.750366,-0.259399,-0.011470,0.049697,-6.618637,-7.438947,-138.339630
4.105519,8.552551,-0.251770,0.225042,-0.026345,-6.616840,-7.397633,-138.188843
4.121120,9.185791,0.297546,0.370000,0.045505,-6.486910,-7.649708,-139.702240
4.136718,8.850098,0.076294,0.278447,0.122745,-6.603069,-7.412601,-138.305679
4.152315,9.117126,-0.106812,-0.019099,0.014969,-6.694678,-7.314405,-137.532974
4.167904,10.070801,-0.152588,-0.041987,-0.032333,-6.714437,-7.265307,-137.256577
4.183483,10.993958,-0.183105,0.057195,-0.003593,-6.749165,-7.550914,-138.208984
4.199111,11.665344,-0.297546,0.049565,0.146695,-6.777307,-7.325183,-137.224792
4.214716,12.397766,-0.274658,-0.164058,-0.146096,-6.741381,-7.265906,-137.144531
4.230312,12.557983,-0.404358,-0.087764,-0.047900,-6.761739,-7.101848,-136.405319
4.245879,12.901306,-0.152588,0.156377,-0.054487,-6.800658,-7.249740,-136.830688
4.261478,13.427734,-0.251770,0.080083,0.029938,-6.828201,-7.248542,-136.710388
4.277072,14.068604,-0.297546,0.118230,0.142504,-6.932384,-7.223395,-136.177704
4.292667,15.121460,-0.205994,0.759099,0.024549,-7.016210,-7.186272,-135.686035
4.308269,16.181946,-0.259399,0.919316,0.094603,-6.993457,-7.067719,-135.302612
4.323850,16.441345,-0.480652,0.865911,0.053888,-7.017407,-7.058138,-135.165802
4.339442,16.380310,-0.511169,1.079534,0.013771,-7.064709,-6.989282,-134.692505
4.355038,16.632080,-0.297546,1.049016,-0.029938,-7.068900,-7.029398,-134.839462
4.370637,16.822815,-0.450134,1.216863,-0.088616,-7.157516,-7.003053,-134.375046
4.386230,17.593384,-0.564575,1.224492,0.081431,-7.138356,-6.985090,-134.378265
4.401819,18.440247,-0.450134,1.232122,0.083227,-7.256909,-6.988683,-133.921326
4.417415,18.989563,-0.244141,1.323674,-0.299377,-7.432943,-6.818636,-132.531830
4.433017,20.751953,-0.320435,1.659368,-0.199984,-7.279063,-6.780316,-132.968323
4.448628,20.034790,0.190735,0.469182,0.047900,-7.356901,-6.753372,-132.550812
4.464245,19.371033,-0.061035,-0.789668,-0.025746,-7.253317,-6.586319,-132.240784
4.479861,18.600464,-0.915527,-0.904109,-0.086819,-7.552694,-6.552191,-130.942627
4.495467,18.623352,-0.366211,0.110601,0.057480,-7.542515,-6.618652,-131.267349
4.511053,19.287109,0.129700,0.797246,-0.036524,-7.591613,-6.435433,-130.288040
4.526640,18.943787,-0.450134,0.476812,-0.059277,-7.640112,-6.550394,-130.608765
4.542235,18.798828,-0.495911,0.240300,-0.005988,-7.713161,-6.526444,-130.236023
4.557849,18.753052,-0.259399,0.148748,-0.172441,-7.854466,-6.365379,-129.021835
4.573426,19.096375,-0.358582,0.102971,0.052690,-7.804171,-6.321670,-129.008759
4.589004,18.417358,-0.381470,-0.141169,0.123942,-7.767647,-6.312090,-129.097763
4.604600,17.448425,-0.427246,0.057195,-0.076042,-7.755073,-6.247424,-128.854630
4.620200,16.571045,-0.328064,0.797246,-0.022154,-7.805368,-6.268980,-128.770126
4.635803,16.059875,0.160217,1.171086,0.015568,-7.976014,-6.295325,-128.283401
4.651400,16.441345,-0.152588,0.804875,-0.112566,-7.937694,-6.158809,-127.807678
4.667007,16.784668,-0.404358,0.476812,-0.077239,-7.979008,-6.135457,-127.558479
4.682611,16.761780,-0.114441,0.156377,-0.050295,-7.893385,-6.029478,-127.374924
4.698215,16.197205,-0.221252,0.080083,-0.036524,-7.964039,-5.977984,-126.892700
4.713796,15.449524,-0.526428,0.064824,0.023950,-7.980804,-5.991157,-126.895409
4.729395,14.724731,-0.526428,-0.370051,-0.041314,-8.022717,-5.991756,-126.754173
4.745003,14.595032,-0.534058,-0.202205,-0.070653,-8.128696,-5.957627,-126.238182
4.760622,14.984131,-0.526428,-0.034358,0.000599,-8.156837,-5.936072,-126.044952
4.776217,15.228271,-0.152588,0.164006,-0.050894,-8.098160,-5.935473,-126.239220
4.791821,15.533447,-1.014709,-1.483943,-0.503553,-8.349637,-5.353483,-122.666512
4.807424,14.747620,-1.152039,-3.414180,0.131726,-8.754395,-5.204393,-120.731026
4.823042,12.786865,-2.159119,-4.489924,0.045505,-8.485554,-5.451679,-122.719360
4.838655,9.132385,-2.731323,-5.504634,-0.101190,-8.401729,-5.546881,-123.433075
4.854251,4.447937,-2.731323,-3.978755,0.183818,-8.463999,-5.334922,-122.223534
4.869841,1.029968,-1.739502,-1.949336,0.101190,-8.324490,-5.346897,-122.713013
4.885425,-1.617432,-0.389099,0.484441,-0.018561,-8.519085,-5.437908,-122.550926
4.901009,-2.815247,0.785828,2.414678,0.123344,-8.374784,-5.596578,-123.753441
4.916593,-4.760742,0.663757,2.773259,0.067061,-8.284372,-5.606757,-124.089630
4.932188,-6.561279,0.541687,3.070806,-0.131127,-8.258626,-5.666033,-124.453026
4.947801,-8.346558,0.785828,2.788518,-0.116158,-8.414303,-5.707946,-124.151505
4.963407,-9.178162,0.793457,2.620671,0.041913,-8.155641,-5.945053,-126.090179
4.979020,-8.293152,0.694275,2.132390,0.079036,-8.212522,-6.037261,-126.320686
4.994609,-6.301880,0.022888,1.560186,-0.167053,-7.974217,-6.076180,-127.306610
5.010200,-4.318237,0.167847,0.225042,-0.133522,-8.211325,-5.967806,-126.008804
5.025804,-3.570557,-0.358582,-0.591304,-0.060474,-7.867639,-5.903140,-126.881134
5.041391,-3.341675,-0.740051,-1.384761,-0.049098,-7.966434,-5.907930,-126.560745
5.056989,-3.875732,-0.679016,-1.041438,-0.031734,-8.094567,-6.004330,-126.567009
5.072594,-3.639221,-0.236511,-0.354792,0.045505,-7.985594,-6.030675,-127.059906
5.088201,-2.395630,0.083923,0.499700,0.019160,-8.081993,-6.033669,-126.743446
5.103807,-0.686646,-0.015259,0.759099,-0.023351,-8.022118,-6.036663,-126.961548
5.119412,0.297546,-0.289917,0.415776,-0.067659,-8.055050,-6.008521,-126.720444
5.135027,0.411987,-0.083923,0.064824,-0.073048,-7.964637,-5.994151,-126.964966
5.150634,0.335693,-0.396729,-0.392939,-0.043709,-7.959249,-5.995947,-126.991852
5.166248,0.541687,-0.488281,-0.370051,0.023950,-7.993977,-6.021095,-126.987206
5.181863,1.693726,-0.259399,-0.118281,-0.009580,-8.032297,-6.037860,-126.932098
5.197478,2.883911,-0.251770,0.209783,-0.008981,-8.046667,-5.994151,-126.683289
5.213091,3.822327,-0.312805,0.324224,-0.030536,-8.002359,-5.988762,-126.810249
5.228694,4.180908,-0.198364,0.362371,-0.051493,-8.013736,-5.938467,-126.539772
5.244310,4.058838,-0.160217,0.263188,-0.034129,-8.000563,-5.950442,-126.640137
5.259891,5.226135,0.091553,-0.232722,0.058678,-7.962243,-5.833685,-126.229065
5.275491,4.875183,-0.205994,-0.125911,0.132924,-8.219707,-5.915115,-125.739777
5.291096,5.798340,-0.282288,-0.576045,-0.048499,-8.089777,-6.009120,-126.605125
5.306708,5.798340,-0.564575,-1.140620,-0.089214,-8.234676,-5.839074,-125.339828
5.322317,5.317688,-0.755310,-1.148250,0.049098,-8.236472,-5.668428,-124.536163
5.337932,4.219055,-0.923157,-1.293208,-0.098795,-8.249645,-5.637892,-124.349098
5.353544,2.754211,-0.572205,-1.102473,0.004790,-8.258027,-5.645676,-124.358826
5.369160,1.464844,-0.495911,-0.545527,0.069456,-8.307125,-5.725310,-124.574799
5.384773,0.465393,-0.205994,0.194524,0.024549,-8.321495,-5.719323,-124.500549
5.400383,-0.335693,0.068665,0.583623,-0.004191,-8.268805,-5.685194,-124.510361
5.415988,-1.091003,0.099182,0.972722,-0.000599,-8.262817,-5.725909,-124.720924
5.431594,-2.426147,0.045776,0.904058,-0.040117,-8.205935,-5.739081,-124.968239
5.447198,-3.463745,0.167847,0.926946,-0.047900,-8.165819,-5.777402,-125.279808
5.462803,-3.822327,-0.061035,0.888799,0.000000,-8.145461,-5.872604,-125.790337
5.478405,-3.311157,0.015259,0.904058,0.001796,-8.141869,-5.921701,-126.028954
5.494018,-2.471924,-0.053406,0.904058,-0.017963,-8.079598,-5.977984,-126.497238
5.509599,-1.220703,0.061035,0.911687,-0.053289,-8.019723,-5.989960,-126.756180
5.525198,-0.511169,-0.007629,0.659917,-0.087418,-8.049661,-5.946849,-126.455887
5.540781,0.251770,-0.289917,0.019048,-0.052092,-8.014334,-5.956429,-126.620544
5.556383,0.732422,-0.465393,-0.476863,-0.046703,-8.044271,-5.959423,-126.532097
5.571985,1.541138,-0.450134,-0.629451,-0.025746,-8.046068,-5.950442,-126.484650
5.587568,2.151489,-0.473022,-0.499751,0.008383,-8.117320,-5.924097,-126.122322
5.603171,2.891541,-0.473022,-0.484492,-0.014370,-8.141869,-5.897153,-125.915810
5.618781,3.135681,-0.389099,-0.423457,-0.039518,-8.117320,-5.848654,-125.773331
5.634411,3.105164,-0.541687,-0.667598,-0.011975,-8.162227,-5.828895,-125.531784
5.649998,2.838135,-0.625610,-0.751521,-0.019160,-8.161029,-5.810333,-125.449371
5.665599,2.326965,-0.541687,-0.652339,-0.004790,-8.215516,-5.792371,-125.185852
5.681203,1.892090,-0.358582,-0.453975,-0.026345,-8.223300,-5.765427,-125.034630
5.696810,1.609802,-0.091553,-0.232722,-0.002395,-8.254435,-5.748662,-124.854630
5.712413,0.991821,-0.267029,-0.164058,-0.035327,-8.243657,-5.736088,-124.830917
5.728030,0.328064,-0.297546,0.156377,0.001796,-8.207732,-5.755248,-125.038071
5.743640,-0.526428,-0.190735,0.362371,-0.008383,-8.214917,-5.772612,-125.095665
5.759258,-1.091003,-0.175476,0.461553,-0.032333,-8.195158,-5.796562,-125.272362
5.774862,-1.251221,-0.183105,0.446294,-0.013771,-8.181986,-5.831888,-125.480194
5.790483,-1.129150,-0.129700,0.598882,-0.023950,-8.142467,-5.849851,-125.694878
5.806061,-0.907898,-0.068665,0.583623,-0.040117,-8.105944,-5.743872,-125.321388
5.821652,-0.846863,-0.122070,0.377629,-0.047900,-8.101153,-5.880986,-125.977570
5.837256,-0.511169,-0.183105,0.171636,-0.029938,-8.099358,-5.891165,-126.030716
5.852847,-0.205994,-0.221252,-0.103022,-0.034129,-8.114925,-5.906134,-126.047546
5.868437,0.488281,-0.434875,-0.087764,-0.022753,-8.110734,-5.908529,-126.072701
5.884043,1.098633,-0.335693,-0.011470,-0.005988,-8.120314,-5.880388,-125.910469
5.899647,1.625061,-0.282288,-0.118281,-0.001796,-8.101153,-5.880388,-125.974792
5.915255,3.746033,-0.305176,-0.202205,-0.041314,-8.131091,-5.858233,-125.771744
5.930860,2.105713,-0.465393,-0.316646,-0.040715,-8.143066,-5.844462,-125.667862
5.946479,0.038147,-0.564575,-0.476863,-0.023351,-8.166418,-5.827098,-125.509537
5.962090,2.090454,-0.549316,-0.545527,-0.000599,-8.184979,-5.854641,-125.575798
5.977697,1.953125,-0.465393,-0.392939,-0.010179,-8.183782,-5.795364,-125.304314
5.993300,0.045776,-0.114441,-0.179316,-0.015568,-8.195158,-5.788778,-125.236084
6.008900,1.739502,-0.350952,-0.087764,-0.017364,-8.178393,-5.751057,-125.114944
6.024500,0.938416,-0.305176,-0.164058,-0.037123,-8.210127,-5.760637,-125.055420
6.040102,0.488281,-0.244141,-0.225093,-0.004790,-8.202343,-5.766624,-125.108986
6.055712,0.099182,-0.236511,-0.087764,0.001796,-8.199948,-5.807938,-125.309547
6.071322,0.007629,-0.267029,0.141118,0.020956,-8.183183,-5.803747,-125.345367
6.086935,0.099182,-0.175476,0.225042,0.149689,-8.208331,-5.793568,-125.215042
6.102546,-0.129700,-0.053406,0.247930,-0.040715,-8.174801,-5.789976,-125.308838
6.118156,-0.495911,-0.228882,0.179265,-0.021555,-8.181986,-5.800753,-125.335365
6.133760,-0.534058,-0.282288,0.194524,-0.002994,-8.161029,-5.830691,-125.544121
6.149362,-0.511169,-0.274658,0.209783,0.149689,-8.164621,-5.839074,-125.571129
6.164964,-0.137329,-0.312805,0.385259,0.146096,-8.153844,-5.841468,-125.618065
6.180566,0.167847,-0.167847,0.347112,-0.014969,-8.135881,-5.839074,-125.666779
6.196180,0.175476,-0.190735,0.064824,-0.041314,-8.152646,-5.835481,-125.594246
6.211784,0.282288,-0.305176,-0.110652,-0.049697,-8.157436,-5.836679,-125.583878
6.227408,-0.167847,-0.274658,-0.179316,-0.041314,-8.160430,-5.827098,-125.529396
6.242993,0.106812,-0.183105,-0.309016,-0.148491,-8.168813,-5.842666,-125.573891
6.258594,0.717163,-0.221252,-0.095393,0.152084,-8.158634,-5.855240,-125.666031
6.274196,0.770569,-0.205994,0.148748,0.142504,-8.156239,-5.811531,-125.470848
6.289802,0.770569,-0.259399,0.003789,-0.037722,-8.155042,-5.794167,-125.393845
6.305403,0.068665,-0.198364,-0.064875,-0.025746,-8.192164,-5.797161,-125.285011
6.321008,-0.602722,-0.190735,-0.171687,-0.028141,-8.213120,-5.770815,-125.093163
6.336614,-0.679016,-0.160217,-0.064875,-0.147892,-8.219707,-5.789377,-125.158134
6.352220,-0.976562,-0.114441,0.118230,0.016765,-8.202343,-5.788778,-125.212418
6.367821,-1.007080,-0.267029,0.370000,0.011975,-8.165220,-5.806741,-125.418747
6.383405,-1.075745,-0.244141,0.591252,-0.010179,-8.161628,-5.842067,-125.594963
6.399008,-1.129150,-0.038147,0.728582,-0.038919,-8.165819,-5.849252,-125.614380
6.414610,-1.159668,0.015259,0.415776,-0.042512,-8.147258,-5.863623,-125.742760
6.430234,-0.640869,-0.183105,0.423406,0.141905,-8.103549,-5.874999,-125.941772
6.445849,0.083923,-0.373840,0.217412,0.031135,-8.083790,-5.926492,-126.246376
6.461429,0.801086,-0.297546,0.270818,-0.031135,-8.088580,-5.906134,-126.136246
6.477035,1.251221,-0.228882,0.316594,-0.068857,-8.081993,-5.914516,-126.197197
6.492637,1.754761,-0.076294,-0.003840,-0.096400,-8.025710,-5.943856,-126.523720
6.508252,1.831055,-0.289917,-0.568416,-0.074844,-8.059839,-5.733094,-125.424850
6.523862,2.082825,-0.526428,-1.071956,-0.055085,-8.162227,-5.866017,-125.703987
6.539474,2.090454,-0.648499,-0.972773,0.011376,-8.149652,-5.828296,-125.570786
6.555081,2.365112,-0.610352,-0.835444,0.016166,-8.191566,-5.833685,-125.456863
6.570691,2.502441,-0.434875,-0.301387,0.026944,-8.243657,-5.767223,-124.976448
6.586299,2.212524,-0.267029,0.087712,-0.031135,-8.249046,-5.722915,-124.751633
6.601900,1.182556,-0.137329,-0.019099,-0.043110,-8.261620,-5.677410,-124.496971
6.617499,-0.007629,-0.228882,-0.148799,-0.026944,-8.243657,-5.700761,-124.665146
6.633104,-1.235962,-0.167847,0.026677,-0.036524,-8.270601,-5.724113,-124.687248
6.648716,-1.930237,-0.022888,0.331853,0.019160,-8.259225,-5.777402,-124.973129
6.664317,-2.113342,-0.061035,0.652288,0.012574,-8.216114,-5.778599,-125.119682
6.679924,-2.243042,0.053406,1.049016,-0.002395,-8.177196,-5.804945,-125.370728
6.695519,-2.517700,0.122070,0.972722,-0.040715,-8.147857,-5.860030,-125.724113
6.711126,-2.449036,0.144958,0.705693,-0.032932,-8.115523,-5.871406,-125.884918
6.726717,-2.044678,-1.945496,0.591252,-0.051493,-8.105944,-5.922300,-126.152313
6.742323,-1.350403,-0.015259,0.370000,-0.028141,-8.077802,-5.950442,-126.376884
6.757915,-0.579834,-0.061035,0.324224,-0.031135,-8.061636,-5.947448,-126.417946
6.773511,0.144958,-0.335693,0.225042,-0.027543,-8.069420,-5.958825,-126.443832
6.789110,0.762939,-0.419617,-0.026729,-0.032932,-8.066425,-5.939664,-126.365852
6.804716,1.518250,-0.358582,-0.339534,-0.051493,-8.069420,-5.936072,-126.339157
6.820316,2.418518,-0.450134,-0.598933,-0.025746,-8.079000,-5.927689,-126.268082
6.835931,2.815247,-0.518799,-0.682856,-0.043709,-8.105944,-5.882184,-125.967010
6.851530,3.120422,-0.518799,-0.782039,-0.031135,-8.134684,-5.845061,-125.698593
6.867127,3.250122,-0.564575,-0.835444,-0.019759,-8.192164,-5.808537,-125.337997
6.882723,2.807617,-0.633240,-0.705745,0.007185,-8.211924,-5.757643,-125.035530
6.898323,2.433777,-0.663757,-0.591304,0.006586,-8.246052,-5.785784,-125.055153
6.913921,1.960754,-0.465393,-0.301387,-0.004191,-8.251441,-5.724113,-124.749458
6.929541,1.518250,-0.198364,0.003789,0.020358,-8.230485,-5.738482,-124.885094
6.945150,0.770569,-0.183105,0.308965,-0.015568,-8.221503,-5.734292,-124.894806
6.960751,-0.007629,0.007629,0.347112,-0.036524,-8.187374,-5.766026,-125.155441
6.976338,-0.656128,-0.198364,0.263188,-0.013173,-8.212522,-5.782791,-125.151031
6.991917,-0.877380,-0.244141,0.125859,-0.007784,-8.184979,-5.778000,-125.219307
7.007508,-0.915527,-0.114441,0.171636,0.000000,-8.158634,-5.819913,-125.501938
7.023109,-0.724792,-0.228882,0.408147,-0.002395,-8.169412,-5.806142,-125.402069
7.038715,-0.541687,-0.114441,0.362371,-0.004790,-8.156239,-5.848654,-125.643448
7.054320,-0.549316,-0.137329,0.202153,-0.043709,-8.135283,-5.838475,-125.666000
7.069926,-0.541687,-0.251770,0.034307,-0.058678,-8.131690,-5.869610,-125.822479
7.085531,-0.297546,-0.244141,0.041936,-0.029938,-7.983798,-5.867215,-126.311806
7.101146,0.297546,-0.267029,-0.019099,0.007185,-8.127499,-5.863024,-125.805962
7.116752,0.457764,-0.473022,-0.019099,-0.010179,-8.162227,-5.851048,-125.634651
7.132357,0.602722,-0.320435,-0.011470,-0.004191,-8.272996,-5.819913,-125.125748
7.147960,0.679016,-0.328064,-0.186946,-0.021555,-8.166418,-5.830092,-125.523438
7.163564,0.679016,-0.267029,-0.232722,-0.025148,-8.170011,-5.834882,-125.533783
7.179174,0.694275,-0.381470,-0.171687,-0.013771,-8.177196,-5.836679,-125.518303
7.194777,0.640869,-0.343323,0.095342,-0.025746,-8.173603,-5.833685,-125.516312
7.210400,0.755310,-0.221252,0.209783,0.002994,-8.175998,-5.806741,-125.383057
7.225999,0.312805,-0.320435,0.202153,-0.029938,-8.178991,-5.783988,-125.267036
7.241627,0.259399,-0.267029,0.034307,-0.034129,-8.170011,-5.807340,-125.405663
7.257219,-0.045776,-0.328064,-0.064875,-0.004790,-8.164621,-5.826499,-125.512703
7.272810,-0.045776,-0.198364,0.125859,-0.004191,-8.155042,-5.827098,-125.547302
7.288396,-0.007629,-0.160217,0.194524,-0.010179,-8.153844,-5.841468,-125.618065
7.304005,0.175476,-0.205994,0.308965,-0.018561,-8.162826,-5.811531,-125.448990
7.319623,0.183105,-0.205994,0.171636,-0.024549,-8.162826,-5.812728,-125.454582
7.335233,0.015259,-0.404358,0.102971,-0.039518,-8.167615,-5.835481,-125.544502
7.350851,0.068665,-0.244141,-0.019099,-0.019759,-8.148456,-5.837876,-125.619308
7.366463,0.144958,-0.267029,-0.179316,0.005389,-8.158035,-5.849851,-125.643021
7.382073,0.358582,-0.328064,0.087712,-0.000599,-8.152646,-5.852845,-125.674850
7.397686,0.434875,-0.144958,0.171636,-0.020956,-8.146659,-5.844462,-125.655891
7.413296,0.473022,-0.282288,0.194524,-0.035925,-8.158035,-5.827098,-125.537346
7.428901,0.404358,-0.320435,-0.011470,-0.014370,-8.178991,-5.824105,-125.453949
7.444507,0.244141,-0.282288,-0.057246,-0.020956,-8.174801,-5.812728,-125.414894
7.460092,0.198364,-0.335693,0.034307,-0.045505,-8.156837,-5.831290,-125.560814
7.475708,0.320435,-0.198364,0.057195,0.003593,-8.171806,-5.829494,-125.502785
7.491285,0.343323,-0.190735,0.171636,-0.034728,-8.160430,-5.836080,-125.571144
7.506879,0.099182,-0.183105,0.118230,-0.033530,-8.149054,-5.831290,-125.586700
7.522488,-0.030518,-0.312805,-0.003840,-0.021555,-8.162826,-5.841468,-125.588203
7.538085,0.015259,-0.228882,-0.095393,-0.005389,-8.131091,-5.854043,-125.752296
7.553691,0.175476,-0.343323,0.011418,-0.026345,-8.160430,-5.847456,-125.623955
7.569295,0.396729,-0.305176,0.011418,-0.006586,-8.176597,-5.826499,-125.473007
7.584894,0.488281,-0.228882,0.133489,-0.001796,-8.163424,-5.811531,-125.447014
7.600492,0.381470,-0.297546,0.026677,-0.039518,-8.162227,-5.815123,-125.467720
7.616091,0.015259,-0.267029,-0.087764,-0.041913,-8.184979,-5.833086,-125.475845
7.631696,-0.099182,-0.381470,-0.019099,-0.009580,-8.181387,-5.807340,-125.368027
7.647313,-0.175476,-0.213623,-0.064875,0.012574,-8.158035,-5.827098,-125.537346
7.662924,0.007629,-0.213623,0.270818,0.019160,-8.181986,-5.819913,-125.424553
7.678529,-0.259399,-0.160217,-1.529719,-0.020956,-8.174202,-5.807340,-125.391785
7.694133,-0.419617,-0.259399,0.301335,-0.034728,-8.177794,-5.783988,-125.270996
7.709722,-0.946045,-0.305176,0.240300,-0.020956,-8.187973,-5.806142,-125.340691
7.725324,-1.495361,-0.274658,0.247930,-0.036524,-8.170609,-5.829494,-125.506760
7.740910,-1.731873,-0.167847,0.499700,0.012574,-8.130492,-5.851647,-125.743179
7.756503,-1.739502,0.000000,0.560735,-0.007185,-8.153844,-5.836679,-125.595810
7.772106,-1.663208,-0.366211,0.507329,-0.029339,-8.227490,-5.856437,-125.443771
7.787719,-1.220703,-0.328064,0.049565,-0.094603,-8.166418,-5.819913,-125.476105
7.803322,-1.663208,-0.289917,-0.324275,-0.060474,-8.205935,-5.807340,-125.287033
7.818927,-2.220154,-0.289917,-0.484492,-0.008383,-8.151449,-5.794765,-125.408554
7.834531,-3.105164,-0.427246,-0.354792,-0.021555,-8.201744,-5.809734,-125.311981
7.850132,-3.410339,-0.289917,-0.034358,-0.007185,-8.162826,-5.828895,-125.529808
7.865735,-4.081726,-0.190735,0.385259,-0.004790,-8.184381,-5.840271,-125.511177
7.881337,-4.302979,-0.190735,0.179265,-0.070054,-8.175998,-5.841468,-125.544502
7.896948,-4.814148,-0.221252,-0.011470,-0.050295,-8.144863,-5.850450,-125.689659
7.912553,-5.462646,-0.205994,-0.148799,-0.052690,-8.143665,-5.882782,-125.843422
7.928163,-5.996704,-0.297546,-0.225093,0.007185,-8.095765,-5.904338,-126.103722
7.943811,-6.164551,-0.221252,-0.179316,0.042512,-8.105345,-5.945053,-126.259048
7.959415,-6.301880,-0.228882,0.179265,-0.014969,-8.073611,-5.970799,-126.484596
7.975005,-6.637573,-0.030518,0.240300,-0.013173,-8.041278,-5.983972,-126.655037
7.990610,-6.767273,-0.152588,0.164006,-0.029339,-8.037086,-5.994151,-126.715988
8.006192,-6.965637,-0.175476,0.049565,-0.014969,-8.019723,-6.170784,-127.576515
8.021788,-7.156372,-0.198364,-0.156428,-0.001198,-8.006550,-6.043848,-127.047806
8.037414,-7.606506,-0.358582,-0.003840,-0.010179,-7.991581,-6.171981,-127.679283
8.053018,-9.750366,-0.335693,-0.041987,-0.017963,-7.983798,-6.067199,-127.232628
8.068602,-8.018494,-0.144958,0.080083,-0.029938,-7.971224,-6.106118,-127.452843
8.084199,-8.079529,-0.083923,-0.057246,-0.051493,-7.969428,-6.122284,-127.532242
8.099775,-8.110046,-0.259399,-0.133540,-0.037123,-7.940687,-6.122883,-127.635010
8.115407,-8.331299,-0.282288,-0.049617,-0.019759,-7.899972,-6.133062,-127.823616
8.130990,-8.880615,-0.267029,-0.003840,-0.028740,-7.889793,-6.173179,-128.040558
8.146567,-9.391785,-0.045776,0.194524,-0.148491,-7.874226,-6.197129,-128.203247
8.162148,-9.559631,-0.190735,-0.011470,-0.054487,-7.886200,-6.210900,-128.222763
8.177724,-9.452820,-0.381470,-0.469233,-0.046104,-7.875423,-6.251017,-128.440338
8.193322,-9.475708,-0.579834,-0.690486,-0.037722,-7.885602,-6.252214,-128.409653
8.208914,-9.773254,-0.274658,-0.652339,-0.045505,-7.885003,-6.334244,-128.775894
8.224502,-10.391235,-0.251770,-0.286128,0.007185,-7.837701,-6.209703,-128.389313
8.240097,-11.337280,-0.144958,-0.164058,0.064666,-7.762857,-6.319275,-129.146973
8.255684,-12.474060,-0.122070,0.141118,-0.132325,-7.726333,-6.338435,-129.364349
8.271276,-13.076782,-0.061035,0.614141,-0.086221,-7.658075,-6.395317,-129.865509
8.286878,-13.221741,0.114441,0.652288,-0.014370,-7.692204,-6.482136,-130.120468
8.302488,-12.939453,-0.061035,0.308965,-0.020358,-7.788603,-6.502494,-129.857590
8.318087,-12.138367,-0.152588,-0.270869,-0.152682,-7.694000,-6.447409,-129.962296
8.333704,-11.894226,-0.236511,-0.286128,0.132924,-7.640112,-6.494710,-130.367218
8.349315,-12.687683,-0.274658,-0.103022,0.000599,-7.576644,-6.463575,-130.467224
8.364932,-14.106750,-0.099182,-0.141169,-0.000599,-7.485633,-6.574345,-131.291595
8.380530,-15.830994,-0.495911,-0.728633,-0.285606,-7.416777,-6.545604,-131.429703
8.396122,-16.288757,-0.045776,-0.682856,0.139510,-7.624545,-6.678528,-131.215927
8.411712,-15.419006,-0.457764,-0.988032,0.138312,-7.541916,-6.807859,-132.071609
8.427320,-15.151978,-0.221252,-0.011470,0.040117,-7.432943,-6.680324,-131.947479
8.442920,-15.327454,-0.030518,0.942205,-0.149689,-7.235354,-6.803069,-133.236252
8.458517,-16.525269,0.518799,2.536748,-0.011376,-7.175478,-6.816840,-133.531769
8.474115,-17.303467,0.877380,2.056096,0.109572,-7.253915,-6.817439,-133.223328
8.489719,-16.441345,0.106812,0.965093,-0.114362,-7.297625,-6.995868,-133.790573
8.505342,-14.968872,0.465393,0.164006,-0.216151,-7.286847,-7.051552,-134.059845
8.520942,-14.045715,0.190735,-0.606562,-0.088017,-7.243737,-6.934795,-133.751755
8.536529,-13.557434,-0.152588,-1.918818,0.009580,-7.104227,-6.976708,-134.481140
8.552112,-14.457703,-0.907898,-2.727534,-0.084424,-7.043753,-6.974313,-134.716187
8.567689,-15.625000,-0.946045,-2.681758,-0.055085,-7.092252,-6.921023,-134.299927
8.583269,-16.227722,-0.755310,-2.506282,0.013173,-7.091653,-7.028800,-134.744965
8.598864,-16.807556,-0.770569,-2.872493,0.018561,-7.087461,-7.139569,-135.209854
8.614477,-16.716003,-0.473022,-2.727534,0.025148,-7.038363,-7.173698,-135.545578
8.630050,-16.334534,-0.419617,-1.308467,0.122146,-7.065907,-7.259320,-135.773529
8.645648,-16.227722,-0.503540,0.171636,0.153880,-6.928792,-7.168309,-135.973404
8.661231,-16.899109,-0.511169,1.316045,0.125140,-6.877897,-7.163519,-136.165314
8.676826,-18.424988,-0.343323,1.628850,0.001198,-6.847960,-7.182680,-136.366608
8.692427,-19.454956,-0.190735,1.415227,-0.104183,-6.818621,-7.294048,-136.929443
8.708030,-20.408630,-0.167847,0.934575,-0.031135,-6.794072,-7.368892,-137.324142
8.723625,-21.003723,-0.686646,0.003789,-0.029938,-6.850355,-7.488643,-137.548798
8.739245,-20.469666,-0.961304,-0.331904,0.004191,-6.732400,-7.608993,-138.497757
8.754839,-20.606995,-0.473022,0.995610,-0.185614,-6.480324,-7.473075,-139.069611
8.770447,-20.957947,0.099182,1.789067,0.245490,-6.336623,-7.608993,-140.213135
8.786030,-21.347046,-0.022888,0.621770,-0.034728,-6.488707,-7.624560,-139.601318
8.801630,-21.575928,-0.785828,0.438665,-0.210163,-6.447991,-7.731139,-140.170929
8.817235,-22.155762,-1.167297,-0.072505,0.211360,-6.355185,-7.450323,-139.535553
8.832861,-22.537231,-0.602722,-1.400020,-0.017963,-6.380332,-7.764071,-140.587433
8.848467,-22.781372,-1.182556,-0.324275,-0.231718,-6.158194,-7.679646,-141.274384
8.864085,-22.994995,-0.915527,0.194524,0.079634,-6.208489,-7.838316,-141.618347
8.879704,-22.514343,-0.679016,0.293706,0.039518,-6.231841,-7.877834,-141.653885
8.895313,-21.705627,-0.717163,0.720952,-0.125140,-6.201304,-7.899988,-141.868912
8.910926,-21.369934,-0.701904,1.094792,-0.011975,-5.991740,-7.888611,-142.781769
8.926520,-22.232056,-0.122070,1.613591,-0.023950,-6.025270,-7.855081,-142.509842
8.942120,-23.452759,0.167847,1.903508,-0.219743,-5.894742,-7.883223,-143.212402
8.957726,-24.299622,-0.022888,1.422856,-0.125739,-5.834268,-8.114342,-144.283600
8.973328,-25.375366,-0.495911,0.057195,0.192200,-5.674999,-8.370010,-145.862122
8.988940,-25.177002,-0.755310,-1.071956,-0.091610,-5.531897,-8.344264,-146.457291
9.004552,-23.803711,-1.052856,-0.713374,-0.004790,-5.719905,-8.246068,-145.252792
9.020155,-22.628784,-0.755310,-0.080134,0.093406,-5.559439,-8.208945,-145.892517
9.035758,-22.544861,-0.488281,0.263188,-0.055085,-5.513335,-8.341869,-146.538361
9.051375,-23.124695,-0.961304,0.659917,-0.132924,-5.453459,-8.249062,-146.531281
9.066982,-23.712158,-0.801086,0.789617,-0.049098,-5.419929,-8.279598,-146.790741
9.082586,-23.895264,-0.282288,0.606511,0.005389,-5.309758,-8.399948,-147.702286
9.098189,-23.765564,-0.526428,0.400518,-0.058079,-5.251081,-8.502336,-148.300339
9.113804,-23.818970,-0.709534,1.094792,-0.050295,-5.130132,-8.467607,-148.790268
9.129407,-23.056030,-0.328064,0.575994,-0.005988,-5.084627,-8.594543,-149.390976
9.144996,-22.895813,-0.617981,-0.301387,-0.117356,-4.915179,-8.586161,-150.210861
9.160576,-22.483826,-0.595093,-0.392939,-0.192799,-4.964277,-8.584964,-149.961243
9.176169,-22.193909,-0.572205,-0.003840,0.079634,-4.955894,-8.640049,-150.161606
9.191780,-22.399902,-0.289917,-0.637080,0.067061,-4.927752,-8.669987,-150.387436
9.207392,-22.453308,-0.610352,-0.186946,-0.160466,-4.779262,-8.669987,-151.134598
9.223003,-22.560120,-0.762939,0.980352,-0.097597,-4.752317,-8.676573,-151.289673
9.238612,-22.613525,-0.396729,1.018499,0.095801,-4.700825,-8.746627,-151.744446
9.254205,-22.613525,-0.358582,-0.186946,-0.091610,-4.698430,-8.822669,-151.962891
9.269811,-22.552490,-0.633240,-0.217463,-0.248483,-4.661307,-8.821471,-152.147812
9.285416,-22.552490,-0.274658,-0.309016,0.110171,-4.484076,-8.794528,-152.984283
9.301029,-22.453308,-0.083923,-1.514460,0.034728,-4.502637,-8.914279,-153.201477
9.316633,-22.697449,-0.221252,-0.743892,-0.250280,-4.344565,-9.000500,-154.233261
9.332228,-22.254944,-0.396729,1.033757,0.168250,-4.158951,-9.496867,-156.350006
9.347830,-21.118164,-0.251770,1.033757,0.083826,-4.001479,-8.551434,-154.923660
9.363435,-20.851135,-0.122070,1.300786,-0.290396,-3.964955,-8.740041,-155.598389
9.379040,-20.278931,-0.862122,2.216313,-0.124541,-3.917054,-9.050196,-156.596344
9.394627,-19.409180,-0.137329,1.163457,0.021555,-3.899691,-9.023850,-156.628235
9.410226,-18.760681,0.198364,-0.011470,-0.204774,-3.878734,-9.059177,-156.821548
9.425836,-17.570496,0.175476,0.125859,-0.070653,-3.796106,-9.135220,-157.434860
9.441415,-15.953064,-0.190735,-0.957515,0.079036,-3.687133,-9.193298,-158.145889
9.457029,-15.159607,0.160217,-1.903560,-0.122146,-3.731441,-9.129231,-157.768417
9.472630,-14.739990,0.083923,0.339482,-0.151485,-3.736230,-9.108275,-157.696472
9.488244,-14.839172,0.022888,-1.026179,-0.010179,-3.676355,-9.126238,-158.058777
9.503854,-14.930725,0.053406,-0.888850,-0.007784,-3.689528,-9.218446,-158.187073
9.519465,-14.572144,0.038147,-0.331904,-0.062271,-3.636238,-9.198089,-158.429855
9.535070,-13.824463,-0.106812,0.057195,-0.003593,-3.584745,-9.253174,-158.823273
9.550674,-12.977600,-0.579834,0.492070,0.031734,-3.535049,-9.122645,-158.818527
9.566276,-11.245728,-1.823425,1.117681,0.052690,-3.332670,-8.892723,-159.455826
9.581881,-12.771606,-3.417969,1.728032,-0.041314,-3.281177,-9.030437,-160.031570
9.597483,-17.593384,-1.785278,3.559087,-0.025148,-3.354225,-9.249581,-160.067566
9.613092,-18.974304,-0.144958,4.856084,0.032333,-3.384761,-9.520817,-160.429108
9.628714,-16.723633,-0.610352,2.536748,-0.297581,-3.310516,-9.999821,-161.682495
9.644323,-12.298584,-1.045227,0.736211,-0.379012,-3.598517,-9.771097,-159.782166
9.659909,-9.346008,-0.183105,0.270818,-0.191003,-3.419489,-9.483694,-160.172470
9.675488,-6.286621,0.122070,-1.132991,0.007185,-3.367398,-9.455553,-160.397705
9.691091,-6.561279,0.038147,-2.979304,-0.090412,-3.277584,-9.222637,-160.435577
9.706691,-8.476257,0.175476,-2.613093,-0.114961,-3.139871,-9.016665,-160.800369
9.722298,-11.985779,0.289917,-1.064326,0.013173,-3.062032,-9.022055,-161.253082
9.737901,-14.678955,-0.205994,-0.576045,0.040715,-3.081791,-9.367536,-161.789505
9.753504,-13.717651,-0.358582,0.446294,-0.001796,-3.178790,-9.444776,-161.398514
9.769079,-14.442444,-0.602722,1.529668,-0.067061,-3.207530,-9.687870,-161.680954
9.784673,-12.611389,-0.801086,1.773809,-0.168849,-3.176395,-9.587279,-161.669266
9.800276,-10.795593,-0.717163,1.445745,-0.111967,-3.127896,-9.524410,-161.819397
9.815892,-10.047913,-0.328064,0.492070,-0.067061,-3.068020,-9.427411,-161.973236
9.831484,-10.681152,-0.122070,-0.537898,-0.102387,-2.945874,-9.328617,-162.474457
9.847087,-12.207031,-0.267029,-0.568416,-0.198787,-2.798580,-9.338197,-163.316956
9.862671,-13.427734,-0.205994,0.232671,-0.067061,-2.727927,-9.398072,-163.813858
9.878254,-13.511658,-0.198364,0.316594,0.030536,-2.702780,-9.513034,-164.139450
9.893829,-12.374878,-0.450134,0.301335,-0.028141,-2.744094,-9.702839,-164.208374
9.909417,-11.016846,-0.839233,1.049016,-0.076042,-2.756069,-9.526805,-163.865036
9.924993,-10.383606,-1.075745,1.331304,-0.029339,-2.762056,-9.496268,-163.782547
9.940589,-10.581970,-0.869751,1.285527,-0.051493,-2.739304,-9.456751,-163.845474
9.956181,-11.344910,-0.679016,1.338933,-0.170645,-2.674638,-9.468725,-164.226578
9.971800,-12.016296,-0.625610,1.308416,-0.201780,-2.526147,-9.496268,-165.103455
9.987394,-11.940002,-0.625610,0.972722,-0.122146,-2.466271,-9.518422,-165.473816
10.002980,-11.497498,-0.320435,0.232671,-0.102986,-2.460883,-9.540576,-165.536469
10.018559,-11.077881,0.061035,-0.385310,-0.305365,-2.457290,-9.554348,-165.576660
10.034200,-11.016846,-0.076294,-0.110652,-0.302371,-2.474654,-9.566921,-165.497314
10.049797,-10.993958,-0.038147,-0.286128,-0.083826,-2.458488,-9.560335,-165.578583
10.065395,-11.260986,0.190735,-0.728633,-0.086221,-2.435136,-9.602847,-165.770599
10.080968,-11.070251,0.251770,-0.843074,-0.119152,-2.362088,-9.611229,-166.192444
10.096553,-11.032104,0.030518,-0.942256,-0.080832,-2.357897,-9.541774,-166.119537
10.112145,-11.154175,0.000000,-1.209285,-0.067659,-2.337539,-9.549558,-166.245605
10.127715,-11.833191,0.251770,-0.751521,-0.074246,-2.308200,-9.550755,-166.413437
10.143293,-12.931824,-1.930237,-0.354792,-0.077239,-2.350113,-9.543570,-166.166092
10.158877,-13.771057,-0.122070,-0.270869,-0.071851,-2.335144,-9.626797,-166.365280
10.174470,-13.961792,-1.853943,-0.103022,-0.079634,-2.278262,-9.663919,-166.734772
10.190047,-14.106750,-0.068665,-0.286128,-0.099992,-2.242936,-9.693258,-166.971542
10.205633,-14.030457,-0.022888,-0.331904,-0.120350,-2.208208,-9.704037,-167.180328
10.221217,-14.328003,-0.236511,-0.064875,-0.062271,-2.127376,-9.677093,-167.601532
10.236803,-14.900208,-0.282288,0.286077,0.004790,-2.056723,-9.644161,-167.961380
10.252375,-15.228271,-0.442505,0.507329,-0.021555,-1.951342,-9.644161,-168.561539
10.267939,-16.098022,-0.801086,0.926946,-0.108973,-1.840572,-9.619013,-169.167542
10.283515,-16.075134,-1.022339,1.522039,-0.052092,-1.798660,-9.656136,-169.448380
10.299111,-16.296387,-0.984192,1.346563,-0.018561,-1.778302,-9.678289,-169.588531
10.314719,-16.540527,-0.808716,1.445745,-0.149689,-1.703458,-9.699246,-170.038864
10.330323,-16.357422,-1.098633,1.514409,-0.139510,-1.646576,-9.750739,-170.415085
10.345937,-15.884399,-0.717163,1.224492,-0.169448,-1.539998,-9.751338,-171.025589
10.361536,-14.938354,-0.633240,0.911687,-0.191602,-1.435814,-9.787862,-171.654602
10.377136,-14.060974,-0.671387,0.820134,-0.126936,-1.420247,-9.711222,-171.679596
10.392726,-13.854980,-0.213623,0.545476,-0.083227,-1.404080,-9.699845,-171.763474
10.408353,-13.694763,-0.152588,0.545476,-0.003593,-1.322649,-9.651346,-172.196625
10.423943,-13.542175,-0.282288,0.484441,-0.098795,-1.223855,-9.715412,-172.820251
10.439541,-13.687134,-0.427246,0.591252,-0.111368,-1.149609,-9.677093,-173.225174
10.455154,-12.985229,-0.839233,0.919316,-0.092807,-1.015488,-9.709425,-174.029251
10.470758,-11.543274,-0.961304,1.087163,-0.128134,-0.992736,-9.766906,-174.196228
10.486353,-10.635376,-0.846863,1.049016,-0.094603,-1.026865,-9.735770,-173.979080
10.501957,-10.276794,-0.816345,0.850652,-0.116158,-1.208886,-9.713017,-172.905426
10.517564,-9.788513,-0.579834,0.621770,-0.148491,-0.922083,-9.811812,-174.631302
10.533179,-9.231567,-0.259399,0.171636,-0.175435,-1.034648,-9.817800,-173.984100
10.548786,-8.567810,-0.442505,-0.049617,-0.152084,-1.047222,-9.769300,-173.881531
10.564405,-8.087158,-0.122070,-0.583674,-0.114961,-0.964594,-9.780677,-174.367569
10.580005,-7.431030,0.068665,-0.843074,-0.091011,-1.071172,-9.797442,-173.760529
10.595623,-6.927490,0.167847,-0.736262,-0.113165,-1.065784,-9.735770,-173.752655
10.611243,-6.607056,0.083923,-0.347163,-0.087418,-0.958607,-9.793251,-174.409439
10.626855,-6.599426,-0.213623,-0.072505,-0.016765,-0.985551,-9.669908,-174.180542
10.642476,-6.286621,-0.419617,0.041936,-0.034728,-1.014889,-9.724993,-174.042236
10.658058,-6.553650,-0.595093,0.598882,-0.002994,-0.862207,-9.800436,-174.972260
10.673653,-6.729126,-0.839233,0.736211,-0.089214,-0.729283,-9.693258,-175.697403
10.689258,-8.094788,-0.480652,0.293706,-0.192799,-0.644260,-9.566921,-176.147385
10.704863,-7.827759,0.312805,0.072454,-0.170046,-0.717308,-9.657932,-175.752365
10.720477,-6.507874,-0.053406,-0.408198,-0.095801,-0.500559,-10.062691,-177.152222
10.736090,-4.264832,0.061035,-0.667598,-0.053888,-0.826881,-9.756128,-175.155472
10.751695,-1.617432,0.282288,-1.049067,-0.064666,-0.870590,-10.041734,-175.044998
10.767313,1.129150,0.274658,-0.888850,-0.068258,-1.032852,-10.029160,-174.120132
10.782935,2.799988,-0.198364,0.408147,-0.007784,-0.864602,-9.881268,-174.999405
10.798551,0.572205,-0.587463,0.736211,0.039518,-0.816702,-9.638772,-175.156845
10.814164,-0.930786,-0.915527,0.843022,-0.027543,-0.725691,-9.615420,-175.683975
10.829776,-2.624512,-0.442505,1.155828,-0.130529,-0.711920,-9.581291,-175.750565
10.845386,-3.013611,-0.679016,1.255010,-0.132924,-0.692759,-9.718407,-175.922668
10.860987,-1.579285,-0.984192,1.369451,-0.128134,-0.671803,-9.841151,-176.094772
10.876570,0.373840,-0.579834,1.026128,-0.152084,-0.910706,-9.910606,-174.749725
10.892175,1.686096,-0.648499,0.690435,-0.174836,-0.801733,-9.854323,-175.348740
10.907779,2.143860,-0.518799,0.530217,-0.186812,-0.808918,-9.805225,-175.283859
10.923376,1.983643,-0.328064,0.133489,-0.148491,-0.746647,-9.777084,-175.632965
10.938975,2.037048,-0.083923,-0.644709,-0.126936,-0.722697,-9.730980,-175.752563
10.954574,2.151489,0.022888,-0.721003,-0.191003,-0.614322,-9.654340,-176.359070
10.970174,1.960754,-0.297546,-0.324275,-0.138312,-0.608335,-9.628593,-176.384857
10.985774,1.770020,-0.541687,0.133489,-0.061672,-0.669408,-9.668710,-176.039474
11.001392,1.800537,-0.503540,0.881169,0.007784,-0.684976,-9.786664,-175.996353
11.016993,3.410339,-0.984192,1.316045,-0.079036,-0.731080,-9.910007,-175.780823
11.032599,4.722595,-1.281738,1.697515,-0.156275,-0.820893,-9.835762,-175.229141
11.048198,5.508423,-1.220703,1.522039,-0.206570,-0.881367,-9.824985,-174.873901
11.063798,5.584717,-0.801086,1.422856,-0.267643,-0.887954,-9.766307,-174.804947
11.079404,5.004883,-0.549316,1.018499,-0.186213,-0.892145,-9.772893,-174.784058
11.094993,4.814148,-0.518799,0.751470,-0.192200,-0.828677,-9.671703,-175.102829
11.110568,5.294800,0.045776,-0.148799,-0.117955,-0.831072,-9.739363,-175.122696
11.126174,6.080627,0.106812,-1.003291,-0.350870,-0.832868,-9.773492,-175.129196
11.141773,5.996704,0.846863,-1.644160,-0.364642,-1.047222,-9.707030,-173.842575
11.157353,6.210327,0.946045,-2.368953,-0.232317,-1.096320,-9.829775,-173.636078
11.172935,6.385803,1.670837,-2.765681,-0.118553,-1.156196,-9.944736,-173.368454
11.188541,6.317139,1.594543,-2.758052,-0.036524,-1.253793,-9.960303,-172.825394
11.204122,6.690979,0.816345,-2.025630,0.010179,-1.323248,-9.717808,-172.245865
11.219709,6.301880,0.480652,-1.506831,0.000000,-1.366957,-9.785467,-172.047668
11.235294,2.212524,0.480652,-1.300837,-0.093406,-1.434018,-9.662124,-171.557983
11.250861,1.403809,0.701904,-1.262690,-0.192799,-1.441802,-9.712419,-171.556137
11.266432,-0.938416,0.862122,-1.461055,-0.177830,-1.410068,-9.794448,-171.807648
11.282018,-2.967834,0.465393,-1.712825,-0.072449,-1.435215,-9.825583,-171.689621
11.297601,-4.722595,0.381470,-1.583125,0.010778,-1.450184,-9.839953,-171.616257
11.313185,-6.561279,0.343323,-1.132991,-0.004191,-1.451382,-9.779479,-171.558304
11.328770,-8.758545,-0.114441,-0.568416,-0.019160,-1.402883,-9.775288,-171.833069
11.344335,-11.451721,-0.434875,0.072454,-0.032333,-1.376537,-9.769300,-171.979568
11.359907,-13.595581,-0.350952,0.522588,-0.011376,-1.314866,-9.841750,-172.390305
11.375494,-15.289307,-0.610352,0.537847,-0.068857,-1.229244,-9.887854,-172.913422
11.391072,-16.128540,-0.747681,1.110051,-0.124541,-1.119073,-9.893842,-173.546814
11.406648,-16.883850,-0.480652,1.316045,-0.152084,-1.029260,-9.857916,-174.039383
11.422231,-17.654419,-0.328064,1.041387,-0.300575,-0.974773,-9.847138,-174.346680
11.437811,-18.493652,-0.099182,0.270818,-0.092208,-0.935854,-9.796245,-174.542984
11.453398,-19.882202,0.007629,-0.179316,-0.071851,-0.854423,-9.878274,-175.056488
11.468978,-21.522522,-0.167847,-0.072505,-0.086221,-0.791554,-9.805225,-175.384644
11.484555,-22.186279,-0.595093,-0.103022,0.071851,-0.652044,-9.800436,-176.193588
11.500139,-22.857666,-0.274658,0.339482,-0.102986,-0.445474,-9.814806,-177.401245
11.515720,-23.803711,-0.549316,1.270269,-0.134720,-0.359852,-9.778282,-177.892395
11.531309,-24.017334,-1.144409,1.346563,-0.098196,-0.292791,-9.813009,-178.290970
11.546888,-23.445129,-0.823975,1.041387,0.020956,-0.146096,-9.835762,-179.149017
11.562474,-22.796631,-0.495911,0.957463,-0.155676,0.010778,-9.817201,179.937103
11.578036,-22.193909,-0.930786,1.422856,-0.255668,0.098196,-9.745350,179.422699
11.593602,-21.537781,-1.411438,1.712773,-0.047900,0.165256,-9.822590,179.036148
11.609181,-21.087646,-1.121521,1.331304,-0.003593,0.213157,-9.737567,178.745987
11.624778,-21.255493,-0.808716,0.820134,-0.095202,0.265847,-9.638772,178.420120
11.640375,-21.217346,-1.205444,1.377080,-0.213157,0.410746,-9.648951,177.562454
11.655965,-20.637512,-1.251221,2.178166,-0.243094,0.678988,-9.747746,176.015457
11.671563,-20.347595,-1.312256,2.620671,-0.245490,0.695753,-9.581890,175.846970
11.687171,-18.859863,-0.976562,1.110051,-0.118553,0.679587,-9.706431,175.995026
11.702776,-16.395569,0.289917,-0.347163,-0.170046,0.729882,-9.890249,175.779327
11.718381,-15.228271,0.907898,-0.713374,-0.187410,0.684377,-9.800436,176.005447
11.733979,-13.763428,0.343323,-1.178767,-0.141306,0.695753,-9.798639,175.938522
11.749578,-12.199402,0.091553,-1.163508,-0.014370,0.773591,-9.751937,175.464401
11.765178,-11.611938,0.396729,-1.201655,0.096400,0.831671,-9.674099,175.086441
11.780777,-11.146545,0.335693,-0.949885,-0.012574,0.946033,-9.686672,174.421997
11.796393,-10.955811,-0.434875,0.080083,-0.059277,0.968785,-9.683080,174.286606
11.812001,-10.437012,-1.266479,1.407598,-0.094603,1.038241,-9.629790,173.846405
11.827584,-8.987427,-1.907349,1.895879,-0.158071,1.224454,-10.011197,173.026871
11.843180,-7.766724,-1.495361,1.796697,-0.377814,1.126258,-9.697450,173.375366
11.858779,-7.034302,-1.487732,0.560735,-0.347877,0.897534,-9.334604,174.507828
11.874379,-4.524231,-0.450134,0.286077,-0.325723,1.075963,-9.868694,173.777740
11.889985,-3.265381,-0.053406,-0.064875,-0.209564,0.965193,-9.638772,174.281662
11.905593,-3.105164,-0.114441,-0.148799,-0.260458,1.016686,-9.651346,173.986557
11.921186,-1.724243,0.373840,-0.286128,-0.125140,1.107098,-9.797442,173.553009
11.936800,-1.068115,0.457764,-1.049067,-0.071252,1.092129,-9.712419,173.584229
11.952406,-0.587463,0.862122,-1.194026,-0.139510,1.060395,-9.598656,173.695908
11.968021,0.190735,0.434875,-1.117732,-0.080233,0.928669,-9.687271,174.524078
11.983648,0.793457,0.076294,-0.614192,-0.097597,1.041834,-9.704635,173.872513
11.999261,1.487732,0.167847,-0.377681,-0.049098,0.961600,-9.707629,174.342957
12.014867,1.983643,-0.099182,-0.110652,-0.064067,0.795146,-9.726191,175.326279
12.030481,2.105713,-0.205994,-0.003840,-0.091011,0.850831,-9.772294,175.024063
12.046095,1.739502,-0.549316,0.575994,-0.176633,0.838856,-9.720202,175.067581
12.061672,1.876831,-0.503540,0.690435,-0.045505,0.813109,-9.830973,175.271881
12.077260,1.861572,-0.839233,0.331853,-0.122146,0.826282,-9.732777,175.147400
12.092857,1.457214,-0.228882,-0.080134,-0.058678,0.800535,-9.703438,175.283768
12.108483,1.449585,-0.320435,-0.515010,-0.123942,0.810115,-9.772893,175.261353
12.124094,1.556396,-0.083923,-0.125911,-0.191003,0.775388,-9.766906,175.460846
12.139692,1.174927,-0.091553,-0.103022,-0.085023,0.747845,-9.756726,175.616898
12.155288,0.579834,-0.244141,-0.209834,-0.143701,0.741857,-9.778282,175.661407
12.170888,0.167847,0.205994,0.080083,-0.087418,0.614322,-9.830973,176.424316
12.186487,-0.373840,-0.213623,0.011418,-0.081431,0.725691,-9.782474,175.757401
12.202093,-1.113892,-0.442505,0.164006,-0.084424,0.726290,-9.802831,175.762711
12.217693,-1.762390,-0.419617,0.179265,-0.068258,0.728086,-9.757325,175.732529
12.233298,-2.494812,-0.320435,0.156377,-0.108973,0.755030,-9.731579,175.563568
12.248896,-3.196716,-0.122070,0.072454,-0.104183,0.780776,-9.744153,175.418808
12.264496,-3.517151,-0.396729,0.194524,-0.088017,0.832269,-9.769300,175.130600
12.280096,-3.494263,-0.419617,0.278447,-0.100591,0.829874,-9.756128,175.138016
12.295693,-3.204346,-0.350952,0.110601,-0.107177,0.864602,-9.780078,174.947937
12.311310,-3.334045,-0.259399,0.034307,-0.150886,0.871787,-9.792053,174.912354
12.326917,-3.715515,-0.114441,0.156377,-0.139510,0.862207,-9.744752,174.943680
12.342514,-3.906250,-0.274658,0.217412,-0.114362,0.907712,-9.744153,174.677994
12.358119,-4.180908,-0.396729,0.102971,-0.122745,0.958607,-9.712419,174.363220
12.373722,-4.936218,-0.221252,-0.057246,-0.112566,0.954415,-9.669309,174.362839
12.389323,-5.531311,-0.129700,-0.179316,-0.086819,1.017285,-9.708227,174.018036
12.404919,-5.546570,-0.328064,-0.011470,-0.140707,1.000519,-9.677691,174.097488
12.420516,-5.859375,-0.404358,0.148748,-0.089813,0.982557,-9.705234,174.219086
12.436115,-5.767822,-0.450134,0.202153,-0.099393,1.016087,-9.757924,174.055252
12.451712,-5.798340,-0.244141,0.286077,-0.135917,1.011896,-9.764510,174.083557
12.467284,-6.134033,-0.442505,0.072454,-0.162861,0.987946,-9.726191,174.200027
12.482873,-5.989075,-0.267029,-0.003840,-0.165256,1.072969,-9.725592,173.704346
12.498485,-6.217957,0.061035,-0.225093,-0.095801,1.137634,-9.709425,173.317245
12.514093,-6.538391,0.099182,-0.278499,-0.120350,1.136437,-9.684278,173.307037
12.529693,-6.584167,-0.030518,-0.103022,-0.087418,1.153202,-9.670506,173.199615
12.545292,-6.385803,-0.663757,0.095342,-0.064666,1.231040,-9.707030,172.772369
12.560879,-6.469727,-0.221252,0.354741,-0.041913,1.207689,-9.748943,172.938232
12.576484,-6.568909,-0.068665,-0.324275,-0.135917,1.202300,-9.580692,172.847229
12.592091,-6.462097,-0.091553,-0.095393,-0.193398,1.203497,-9.771695,172.978714
12.607689,-6.576538,-0.236511,0.225042,-0.194595,1.231040,-9.781276,172.826660
12.623284,-6.553650,-0.434875,0.278447,-0.102986,1.266965,-9.852528,172.672394
12.638881,-6.515503,-0.274658,0.041936,-0.033530,1.287922,-9.839953,172.543121
12.654489,-6.492615,0.030518,-0.255610,-0.044308,1.277743,-9.678888,172.479675
12.670102,-6.668091,-0.030518,-0.125911,-0.111368,1.353186,-9.693258,172.052826
12.685716,-6.446838,-0.473022,0.209783,-0.202379,1.392105,-9.654340,171.794800
12.701323,-6.660461,-0.717163,0.553105,-0.068857,1.409469,-9.569317,171.621124
12.716937,-6.835938,-0.701904,0.392888,-0.039518,1.431024,-9.607038,171.527756
12.732550,-7.164001,-0.396729,0.362371,-0.074246,1.478925,-9.644161,171.281647
12.748164,-7.049561,-0.389099,0.354741,-0.118553,1.446592,-9.648951,171.473587
12.763766,-6.958008,-0.541687,0.423406,-0.192200,1.524430,-9.693258,171.062469
12.779379,-6.820679,-0.022888,0.026677,-0.214953,1.532812,-9.662124,170.985641
12.795006,-6.431580,0.564575,-0.743892,-0.209564,1.587898,-9.675296,170.679779
12.810619,-6.210327,1.205444,-1.667048,-0.211360,1.527424,-9.654939,171.010239
12.826210,-6.507874,1.403809,-2.048518,-0.151485,1.404679,-9.644759,171.713608
12.841820,-9.658813,1.296997,-2.201106,-0.167651,1.441203,-9.622605,171.481979
12.857403,-9.162903,2.136230,-1.926448,-0.017364,1.513652,-9.606440,171.045715
12.873004,-9.841919,1.434326,-2.086665,0.007784,1.563948,-9.674697,170.817383
12.888614,-10.299683,0.999451,-1.384761,0.016765,1.595682,-9.682481,170.641724
12.904214,-10.726929,0.259399,-0.774409,0.024549,1.569935,-9.674099,170.782272
12.919813,-11.085510,-0.457764,-0.049617,-0.005389,1.568139,-9.739363,170.853287
12.935412,-11.726379,-0.564575,0.675176,-0.040715,1.568738,-9.733974,170.844879
12.951019,-12.168884,-1.274109,1.094792,-0.061073,1.540596,-9.557342,170.842972
12.966628,-12.863159,-0.976562,1.216863,-0.075443,1.607657,-9.623204,170.515732
12.982234,-14.160156,-1.159668,1.285527,-0.075443,1.623823,-9.674697,170.472153
12.997839,-15.586853,-1.113892,0.888799,-0.127535,1.748364,-9.613026,169.692032
13.013437,-16.632080,-0.755310,0.431035,-0.134720,1.847159,-9.593266,169.101227
13.029037,-17.753601,-0.648499,0.423406,-0.195194,1.993854,-9.677093,168.357788
13.044636,-18.531799,-0.350952,0.286077,-0.149689,2.002835,-9.505848,168.102081
13.060235,-18.798828,-0.320435,-0.072505,-0.117955,2.055526,-9.589075,167.901108
13.075853,-19.248962,-0.190735,0.186895,-0.135917,2.104623,-9.553749,167.576569
13.091445,-20.317078,-0.175476,0.141118,-0.074246,2.123784,-9.562131,167.477676
13.107048,-20.599365,-0.137329,0.003789,-0.096998,2.238146,-9.562730,166.827118
13.122666,-20.912170,-0.114441,0.415776,-0.123942,2.263892,-9.511237,166.611420
13.138277,-21.240234,-0.648499,0.255559,-0.078437,2.408791,-9.522015,165.803680
13.153877,-21.644592,-0.640869,0.408147,-0.026944,2.503993,-9.471720,165.191757
13.169484,-22.560120,-0.198364,0.194524,-0.040715,2.511178,-9.353166,164.971405
13.185092,-22.613525,-0.778198,0.217412,-0.128732,2.717150,-9.362746,163.816818
13.200691,-23.010254,-1.205444,1.018499,-0.100591,2.765050,-9.318439,163.472855
13.216299,-23.460388,-1.846313,1.003240,-0.012574,2.883604,-9.287902,162.752060
13.231898,-23.773193,-1.831055,1.483892,-0.138312,2.943479,-9.280717,162.403015
13.247486,-24.276733,-1.335144,1.430486,-0.059875,2.915936,-9.169947,162.359940
13.263083,-23.559570,-1.594543,0.812505,-0.258662,3.112328,-9.347777,161.584900
13.278663,-23.841858,-1.602173,1.354192,-0.209564,3.101550,-9.226230,161.419083
13.294259,-23.475647,-1.823425,1.796697,-0.251477,3.220702,-9.195693,160.697693
13.309857,-22.369385,-1.976013,1.308416,-0.128732,3.456612,-9.145398,159.295319
13.325464,-21.194458,-1.541138,0.713323,-0.124541,3.551814,-9.044209,158.559219
13.341073,-20.545959,-1.266479,1.377080,0.130529,3.505111,-8.990320,158.700378
13.356663,-19.165039,-1.548767,1.056646,0.151485,3.640430,-9.062770,158.115143
13.372268,-18.547058,-1.472473,1.270269,-0.136516,3.708688,-8.853206,157.270752
13.387871,-18.264771,-0.640869,1.056646,-0.289797,3.782933,-9.044807,157.303192
13.403488,-17.501831,-1.060486,0.904058,-0.292192,3.884722,-8.824466,156.239868
13.419092,-16.075134,-0.938416,0.698064,-0.229922,3.960165,-8.785546,155.736099
13.434707,-13.488770,-0.358582,0.400518,-0.106578,4.057163,-8.851409,155.375000
13.450318,-11.978149,0.343323,-0.774409,-0.089813,3.988306,-8.737646,155.465622
13.465919,-11.001587,1.228333,-1.049067,-0.138312,3.944597,-8.760399,155.759109
13.481517,-10.108948,0.976562,-0.530269,-0.229922,3.960763,-8.929248,156.079269
13.497117,-9.559631,0.083923,-0.194575,-0.188009,3.938011,-8.794528,155.878143
13.512717,-7.980347,-0.450134,0.148748,-0.096400,4.103866,-8.820274,155.048538
13.528317,-6.538391,-0.244141,0.095342,-0.010179,4.109854,-8.777164,154.908936
13.543924,-5.508423,-0.274658,-0.179316,-0.059875,4.139791,-8.726869,154.621597
13.559513,-4.104614,-0.183105,0.164006,-0.085023,4.124224,-8.749022,154.761154
13.575109,-3.585815,-0.724792,0.438665,-0.120948,4.047583,-8.737646,155.144775
13.590705,-3.211975,-1.075745,0.232671,-0.159269,4.032015,-8.732257,155.215439
13.606321,-3.303528,-0.434875,0.164006,-0.129930,4.005670,-8.898711,155.765564
13.621926,-3.105164,-0.053406,0.164006,-0.185015,4.023633,-8.884939,155.636139
13.637522,-2.342224,-0.137329,0.110601,-0.169448,4.011059,-8.898112,155.735275
13.653106,-1.274109,-0.556946,0.080083,-0.191003,4.018244,-8.986129,155.907684
13.668710,-1.266479,0.007629,-0.324275,-0.155078,3.796106,-8.769979,156.594513
13.684321,-0.892639,0.793457,-0.988032,-0.081431,3.932023,-8.960981,156.308426
13.699926,-2.861023,1.106262,-1.438166,-0.216749,3.669170,-8.825663,157.425446
13.715533,-4.402161,1.251221,-1.354243,-0.183219,3.734434,-9.043610,157.562485
13.731117,-5.134583,1.075745,-0.965144,-0.155676,3.839216,-9.090313,157.103653
13.746711,-6.278992,0.770569,-0.713374,-0.076042,3.776347,-8.978944,157.189438
13.762310,-6.065369,0.480652,-0.438716,0.031734,3.841611,-9.140009,157.202637
13.777924,-6.774902,0.053406,-0.103022,0.007784,3.749403,-9.004092,157.392609
13.793519,-7.926941,-0.549316,0.453923,-0.034728,3.779940,-8.962179,157.131653
13.809118,-9.918213,-0.762939,0.759099,-0.068857,3.781736,-8.933438,157.055908
13.824729,-12.428284,-1.106262,0.881169,-0.067061,3.967350,-8.876557,155.917892
13.840336,-14.213562,-1.113892,0.621770,-0.116158,3.933820,-8.869372,156.081345
13.855912,-15.205383,-1.075745,0.797246,-0.294587,4.086502,-8.841230,155.193161
13.871382,-15.663147,-1.518250,1.415227,-0.216749,4.248765,-8.830453,154.305496
13.886844,-15.739441,-1.327515,1.087163,-0.220342,4.248166,-8.817280,154.275238
13.902337,-15.472412,-0.190735,0.751470,-0.133522,4.240981,-8.779559,154.217056
13.917918,-15.556335,0.724792,0.133489,-0.196990,4.308640,-8.729862,153.731277
13.933501,-15.335083,1.632690,-1.323726,-0.161664,4.351750,-8.687949,153.393951
13.949090,-15.830994,1.708984,-1.506831,-0.178429,4.379293,-8.665795,153.190079
13.964691,-16.670227,1.449585,-1.056697,-0.132325,4.450545,-8.600531,152.639648
13.980309,-17.189026,0.823975,-0.896479,-0.000599,4.459527,-8.526285,152.388947
13.995921,-17.784119,0.396729,-0.942256,0.021555,4.509822,-8.537063,152.154129
14.011501,-18.455505,0.717163,-0.934626,0.032932,4.611012,-8.517304,151.570236
14.027090,-18.814087,0.358582,-0.682856,0.050295,4.756509,-8.407133,150.500092
14.042711,-18.356323,-0.267029,-0.453975,0.046703,4.814588,-8.401745,150.185303
14.058309,-17.921448,-0.755310,0.118230,-0.070653,4.808002,-8.377794,150.148575
14.073903,-17.875671,-1.907349,1.018499,-0.141306,4.891828,-8.386776,149.745895
14.089492,-18.394470,-2.563477,1.544927,-0.188608,4.782854,-8.328696,150.132889
14.105087,-18.318176,-2.563477,2.002690,-0.196990,4.959486,-8.455033,149.605301
14.120674,-18.569946,-1.480103,1.506780,-0.150287,4.925956,-8.358035,149.486267
14.136261,-18.203735,-0.740051,0.652288,-0.233514,5.008584,-8.389770,149.163345
14.151822,-18.196106,-0.083923,-0.041987,-0.361648,4.963678,-8.273611,149.038727
14.167406,-18.234253,0.312805,-0.553157,-0.261057,5.092410,-8.175415,148.081512
14.183017,-18.722534,0.511169,-0.827815,-0.128134,5.166057,-8.180205,147.726303
14.198629,-19.615173,1.159668,-1.308467,0.013771,5.184020,-8.203556,147.710251
14.214246,-19.783020,1.365662,-1.354243,-0.071851,5.301974,-8.089793,146.759552
14.229858,-19.851685,1.075745,-0.728633,0.091011,5.421127,-8.067639,146.100510
14.245447,-20.271301,0.061035,0.110601,-0.068857,5.351671,-7.882624,145.826630
14.261050,-17.707825,-1.358032,0.911687,-0.174238,5.533693,-7.882025,144.928665
14.276655,-19.508362,-1.846313,1.079534,-0.037123,5.561235,-7.896994,144.845963
14.292261,-18.318176,-1.686096,0.820134,-0.040117,5.580396,-7.904778,144.779739
14.307873,-17.883301,-1.304626,0.965093,-0.095801,5.561834,-7.725750,144.249573
14.323454,-18.264771,-1.441956,0.843022,-0.120948,5.610932,-7.826940,144.364227
14.339064,-18.264771,-1.449585,1.033757,-0.182620,5.679190,-7.798200,143.935287
14.354671,-19.218445,-1.220703,0.659917,-0.210762,5.745053,-7.862266,143.843948
14.370278,-19.569397,-1.052856,-0.247981,-0.192799,5.758824,-7.786823,143.514847
14.385871,-20.866394,-0.671387,0.255559,-0.208367,5.742059,-7.448526,142.371414
14.401492,-20.606995,-0.602722,0.293706,-0.153281,5.973179,-7.692220,142.169876
14.417090,-20.492554,-0.572205,0.263188,-0.184417,6.042036,-7.537142,141.283112
14.432694,-18.630981,-0.358582,0.469182,-0.123344,6.118676,-7.613783,141.213547
14.448305,-17.837524,-0.122070,-0.041987,-0.102387,5.997129,-7.462897,141.214905
14.463904,-17.181396,0.160217,0.431035,-0.173639,6.073171,-7.432360,140.746872
14.479504,-17.547607,-0.534058,0.812505,-0.225132,6.046825,-7.433558,140.873383
14.495104,-17.837524,-1.197815,0.545476,-0.140109,6.153404,-7.407213,140.282516
14.510710,-17.463684,-0.907898,0.400518,-0.035925,6.250402,-7.371287,139.704086
14.526304,-17.738342,0.259399,-0.461604,0.134720,6.255791,-7.338954,139.555420
14.541902,-17.936707,0.892639,-0.484492,-0.137714,6.270161,-7.268900,139.218918
14.557498,-17.875671,0.541687,-0.286128,-0.223934,6.339617,-7.257524,138.862030
14.573096,-17.913818,-0.213623,0.049565,-0.207768,6.359375,-7.229383,138.663300
14.588706,-17.745972,-1.136780,0.652288,-0.137714,6.457572,-7.162920,137.964462
14.604312,-17.303467,-0.724792,0.362371,-0.049098,6.417455,-7.099452,137.888412
14.619918,-16.197205,-0.297546,0.286077,-0.075443,5.586383,-7.153340,142.012039
14.635517,-17.112732,0.312805,0.034307,-0.029339,6.716234,-7.519180,138.228348
14.651141,-16.601562,-0.373840,0.041936,-0.152084,6.607859,-7.184476,137.393982
14.666739,-15.647888,-1.197815,0.156377,-0.068857,6.686894,-6.932999,136.035202
14.682372,-14.808655,-1.594543,0.904058,-0.049697,6.758745,-6.864740,135.445770
14.697964,-14.221191,-2.212524,1.071904,-0.053888,6.775510,-6.854562,135.332306
14.713537,-13.633728,-1.945496,0.972722,-0.063468,6.703061,-6.803069,135.424255
14.729112,-13.160706,-1.739502,0.980352,-0.141306,6.761140,-6.909647,135.622375
14.744697,-13.832092,-1.502991,0.858281,-0.216151,6.656358,-6.860549,135.865463
14.760312,-14.472961,-1.037598,0.690435,-0.271835,6.774313,-6.874919,135.422318
14.775937,-14.816284,-0.457764,0.392888,-0.313748,6.813232,-6.822828,135.040329
14.791549,-14.518738,0.305176,-0.270869,-0.277822,6.823411,-6.909049,135.357300
14.807151,-14.488220,1.037598,-0.896479,-0.276625,6.749764,-6.888691,135.583633
14.822752,-14.945984,3.730774,-0.515010,-0.361648,6.835985,-6.892882,135.237442
14.838360,-15.449524,2.189636,-0.392939,-0.296982,6.789282,-6.804865,135.065674
14.853964,-15.884399,1.708984,-0.911738,-0.186812,6.891669,-6.721039,134.281860
14.869562,-15.266418,3.616333,-1.850154,0.081431,7.179071,-6.695892,133.005554
14.885178,-12.939453,6.607056,-4.024531,0.396974,7.677235,-6.331250,129.511673
14.900781,-12.847900,7.987976,-6.221797,-0.121547,7.299421,-6.277362,130.694901
14.916401,-11.390686,11.138916,-4.131343,-0.338297,7.115004,-6.368971,131.833206
14.932008,-10.093689,13.366699,-3.788020,0.121547,7.426357,-6.222876,129.961151
14.947610,-7.003784,8.056641,-4.566218,0.052092,7.618557,-5.460660,125.631355
14.963208,-0.968933,6.843567,-3.208186,0.090412,8.147857,-5.675613,124.860199
14.978796,2.899170,5.180359,-1.247432,0.172441,7.361093,-5.552869,127.029221
14.994386,7.888794,3.150940,0.774358,0.147294,7.520361,-5.739081,127.348671
15.009982,5.157471,1.693726,-0.400569,0.143102,7.119794,-5.988762,130.068619
15.025565,2.357483,0.419617,-0.759150,0.107776,6.558761,-6.415076,134.365479
15.041170,-0.457764,1.533508,-0.705745,0.222737,7.000642,-6.916832,134.654984
15.056774,-6.156921,1.556396,-0.797297,0.143701,6.961723,-6.672540,133.784943
15.072369,-2.761841,0.488281,-0.499751,0.077838,7.242539,-6.939585,133.776245
15.087961,-0.869751,-0.175476,-0.568416,0.025746,7.102430,-6.826420,133.864792
15.103567,2.258301,-0.968933,-0.438716,0.025148,6.964717,-6.827618,134.430481
15.119179,5.859375,-2.357483,-0.270869,-0.110171,7.370074,-6.919227,133.192841
15.134784,4.806519,-1.846313,0.148748,-0.132325,6.658753,-6.416273,133.937546
15.150404,5.088806,-2.647400,0.278447,-0.227527,7.002439,-6.671942,133.615494
15.165996,-0.488281,-1.708984,0.614141,-0.247286,6.758146,-6.478544,133.789917
15.181591,-2.593994,-1.655579,1.193975,-0.159269,6.928792,-6.481537,133.089813
15.197187,-5.828857,-2.632141,0.720952,-0.234113,7.127578,-6.361188,131.748123
15.212813,-5.889893,-2.998352,0.583623,-0.259860,7.196435,-6.186950,130.686447
15.228394,-4.959106,-2.708435,1.155828,-0.166454,7.252119,-6.394119,131.402298
15.243993,-4.371643,-1.831055,0.789617,0.022753,7.356302,-6.515068,131.529526
15.259591,-2.159119,-1.266479,0.156377,0.050295,7.264693,-6.474352,131.707687
15.275197,-1.350403,-0.274658,-0.576045,-0.065863,7.505991,-6.512074,130.944366
15.290799,-0.083923,1.800537,0.164006,-0.046104,7.186855,-6.336040,131.399887
15.306390,2.571106,1.838684,-0.415828,-0.015568,7.350914,-6.443217,131.235184
15.321998,2.899170,1.083374,-1.018550,-0.062271,7.085066,-6.356398,131.897003
15.337611,4.112244,0.480652,-0.156428,-0.085622,7.316785,-6.488722,131.567474
15.353216,2.914429,0.381470,0.011418,-0.031135,7.083270,-6.434834,132.253738
15.368795,2.563477,0.312805,-0.255610,-0.077838,6.950945,-6.489321,133.032883
15.384406,0.183105,1.686096,-0.148799,0.039518,7.151528,-6.510877,132.315277
15.400019,1.571655,0.656128,-0.965144,-0.018561,7.315587,-6.674336,132.375595
15.415638,0.686646,0.808716,-0.560786,-0.072449,7.113208,-6.384539,131.909912
15.431196,2.700806,1.022339,0.003789,-0.079036,7.179071,-6.483932,132.087448
15.446806,1.968384,0.358582,-0.392939,-0.001198,7.077283,-6.515666,132.634079
15.462410,1.388550,-0.114441,0.011418,-0.098196,6.944359,-6.563567,133.385254
15.478026,0.160217,0.244141,0.293706,-0.087418,7.035370,-6.659368,133.427277
15.493624,-0.991821,0.083923,-0.049617,-0.066462,6.963519,-6.575542,133.358566
15.509234,-0.930786,-0.907898,-0.240352,-0.025746,7.351512,-6.576141,131.813553
15.524825,-1.022339,-2.037048,0.736211,-0.016166,7.180269,-6.432440,131.855560
15.540423,0.709534,-2.685547,1.201604,0.034728,7.244934,-6.452797,131.690277
15.556025,1.701355,-2.746582,0.743840,0.038919,7.198231,-6.401903,131.648987
15.571632,2.433777,-1.625061,0.492070,0.008383,7.131171,-6.379150,131.814041
15.587231,2.166748,-0.465393,0.133489,-0.040117,7.165300,-6.359392,131.589905
15.602851,1.701355,-0.144958,-0.362422,-0.095801,7.100634,-6.332448,131.727036
15.618465,1.655579,-0.289917,-0.240352,-0.161065,7.162905,-6.406693,131.810303
15.634082,0.991821,-0.762939,0.316594,-0.190404,7.128776,-6.362984,131.751389
15.649694,1.190186,-0.831604,0.385259,-0.171244,7.129973,-6.403100,131.925552
15.665309,1.243591,-0.801086,0.339482,-0.140109,7.086264,-6.492914,132.498016
15.680920,1.274109,-0.228882,0.110601,-0.134121,7.064110,-6.589912,133.010941
15.696526,0.923157,0.785828,0.080083,-0.126337,7.073690,-6.616257,133.086243
15.712108,0.839233,1.365662,-0.186946,-0.125140,7.084468,-6.628831,133.097000
15.727717,1.235962,1.281738,-0.431086,-0.131127,7.112010,-6.630628,132.993835
15.743322,1.556396,1.152039,-0.415828,-0.118553,7.070696,-6.597097,133.015442
15.758923,1.861572,1.136780,-0.232722,-0.088616,7.101233,-6.610270,132.949310
15.774508,2.014160,0.724792,-0.377681,-0.063468,7.086264,-6.505487,132.553238
15.790110,1.869202,0.396729,-0.110652,-0.009580,7.092252,-6.472556,132.384308
15.805717,1.571655,0.198364,0.133489,0.056882,7.081474,-6.494710,132.525223
15.821317,1.258850,-0.267029,-0.003840,0.065264,7.064709,-6.504290,132.634949
15.836933,0.938416,-0.633240,0.225042,0.066462,7.098239,-6.508482,132.518188
15.852545,0.541687,-0.625610,0.278447,0.064666,7.073690,-6.500099,132.580276
15.868163,0.373840,-0.953674,0.209783,0.022753,7.112609,-6.547400,132.630630
15.883769,0.411987,-1.121521,2.246831,-0.017364,7.094646,-6.524049,132.600830
15.899383,1.068115,-1.434326,0.423406,-0.050295,7.116202,-6.583925,132.775070
15.914989,1.159668,-1.800537,0.629399,-0.080233,7.090456,-6.569554,132.816177
15.930595,1.564026,-1.625061,0.675176,-0.147294,7.058123,-6.569554,132.946762
15.946196,1.426697,-1.167297,0.469182,-0.131726,7.031178,-6.571949,133.066483
15.961796,1.220703,-0.518799,0.301335,-0.167651,7.008426,-6.600690,133.283905
15.977404,1.144409,-0.030518,-0.164058,-0.168849,7.011420,-6.513870,132.893234
15.993008,-1.831055,0.099182,-0.186946,-0.176034,7.034173,-6.636016,133.331680
16.008682,-0.480652,0.213623,0.026677,-0.205373,7.001840,-6.574943,133.199051
16.024293,-0.640869,0.259399,-0.194575,-0.144300,7.009624,-6.546802,133.044647
16.039910,-0.373840,0.320435,-0.278499,-0.096400,7.081474,-6.627035,133.101334
16.055526,-0.267029,0.534058,-0.179316,-0.058678,7.106622,-6.576739,132.782349
16.071116,0.282288,0.480652,0.019048,-0.014969,7.122788,-6.486328,132.322388
16.086711,0.488281,0.122070,-0.080134,0.023950,7.143744,-6.476748,132.196457
16.102332,0.907898,-0.335693,0.041936,0.029938,7.134763,-6.468365,132.195404
16.117946,1.091003,-1.022339,0.377629,0.070054,7.113807,-6.465970,132.268723
16.133546,1.296997,-1.342773,0.438665,0.079036,7.132368,-6.420465,131.993134
16.149144,3.791809,-1.693726,0.102971,0.061073,7.084468,-6.413280,132.153259
16.164731,2.082825,-1.571655,0.194524,0.028141,7.086264,-6.425254,132.199219
16.180324,2.067566,-1.670837,0.316594,0.000599,7.021000,-6.628232,133.351730
16.195914,1.846313,-2.288818,0.225042,-0.143701,7.092850,-6.737206,133.526947
16.211503,3.837585,-2.273560,1.110051,-0.168849,6.983278,-6.539617,133.120911
16.227095,2.433777,-2.746582,1.399968,-0.150287,7.150929,-6.601288,132.711258
16.242689,3.341675,-3.150940,1.178716,-0.176034,7.057524,-6.524648,132.753235
16.258303,4.356384,-2.540588,1.079534,-0.193997,7.061715,-6.583326,132.992065
16.273916,4.280090,-1.197815,1.132939,-0.164059,6.958729,-6.521055,133.140320
16.289510,3.807068,-0.808716,0.316594,-0.144899,6.986871,-6.636016,133.524689
16.305110,2.784729,-0.595093,0.110601,-0.188009,6.939569,-6.623442,133.664795
16.320726,0.038147,-0.495911,0.263188,-0.138312,6.960526,-6.583326,133.404709
16.336347,1.319885,-0.709534,0.064824,-0.090412,6.991062,-6.659368,133.608032
16.351964,1.457214,-1.060486,0.278447,-0.102986,7.005432,-6.648590,133.502945
16.367597,1.823425,-1.510620,0.591252,-0.033530,7.028185,-6.662960,133.471954
16.383181,2.006531,-1.808167,0.637029,-0.037123,6.996451,-6.504889,132.914886
16.398782,2.426147,-1.541138,0.659917,-0.017364,6.977890,-6.678528,133.744232
16.414397,2.136230,-1.380920,0.789617,-0.064666,6.951544,-6.623442,133.615448
16.429989,2.212524,-1.403809,0.553105,-0.029339,6.962921,-6.593504,133.439056
16.445605,1.617432,-1.411438,0.545476,-0.026345,6.961723,-6.615659,133.539948
16.461192,1.502991,-1.335144,0.720952,-0.082029,7.002439,-6.602486,133.316132
16.476776,1.441956,-1.335144,0.720952,-0.073647,7.001241,-6.598295,133.302856
16.492377,1.998901,-1.693726,0.438665,-0.114362,7.035969,-6.628232,133.290817
16.507958,2.166748,-1.403809,0.347112,-0.148491,7.012018,-6.619251,133.349548
16.523577,2.426147,-0.892639,0.347112,-0.176034,7.046147,-6.536623,132.851700
16.539172,3.112793,-0.518799,0.194524,-0.184417,7.076085,-6.564764,132.853302
16.554770,3.799438,-0.198364,-0.026729,-0.229922,7.062314,-6.537222,132.788849
16.570364,4.371643,0.152588,0.080083,-0.207169,7.043154,-6.547999,132.913513
16.585946,5.073547,0.358582,-0.255610,-0.159269,7.053931,-6.545604,132.859375
16.601548,5.828857,0.404358,-0.171687,-0.140707,6.980284,-6.491117,132.920425
16.617160,5.767822,0.694275,-0.133540,-0.104183,6.977291,-6.598295,133.400864
16.632747,5.844116,0.724792,-0.240352,-0.056283,7.036567,-6.637813,133.329697
16.648345,6.103516,0.366211,-0.240352,-0.127535,6.990463,-6.606079,133.380646
16.663943,6.881714,-0.114441,0.179265,-0.096400,6.968309,-6.613264,133.502518
16.679537,7.743835,-0.617981,0.156377,-0.048499,6.971303,-6.729422,133.988571
16.695122,8.460999,-0.564575,0.370000,-0.038320,6.916218,-6.697089,134.077820
16.710713,9.300232,-0.480652,0.316594,0.028740,6.949149,-6.706669,133.982742
16.726297,9.689331,-0.480652,0.041936,-0.149090,6.874904,-6.727027,134.377121
16.741883,10.559082,-0.251770,0.064824,-0.047900,6.854546,-6.750977,134.563858
16.757501,10.787964,-0.328064,-0.034358,-0.101190,6.819220,-6.759360,134.747421
16.773089,10.879517,-0.419617,-0.034358,-0.114362,6.728807,-6.778520,135.210876
16.788718,10.635376,-0.831604,-0.087764,-0.129331,6.733597,-6.853963,135.507538
16.804339,10.833740,-0.778198,0.186895,-0.096400,6.737789,-6.887493,135.629501
16.819940,10.681152,-0.724792,0.080083,-0.081431,6.726412,-6.912042,135.779785
16.835538,11.222839,-0.411987,0.179265,-0.003593,6.721024,-6.931202,135.882004
16.851185,12.084961,-0.457764,0.232671,-0.154479,6.687493,-6.937788,136.052399
16.866779,13.015747,-0.320435,-0.011470,-0.168849,6.664741,-6.973115,136.295334
16.882377,13.511658,0.053406,0.003789,-0.188009,6.591692,-7.010837,136.764938
16.897974,13.572693,0.205994,-0.133540,-0.131726,6.539601,-7.057539,137.181442
16.913549,13.427734,-1.930237,-0.156428,-0.056882,6.485713,-7.049756,137.386215
16.929133,13.519287,0.160217,-0.072505,-0.067659,6.540798,-7.135977,137.491791
16.944715,13.839722,0.480652,-0.225093,-0.056283,6.470744,-7.098854,137.650223
16.960299,14.129639,0.602722,-0.476863,-0.047900,6.426436,-7.185673,138.192459
16.975883,13.557434,0.747681,-0.545527,-0.061672,6.322852,-7.267703,138.976959
16.991466,12.756348,0.648499,-0.370051,-0.149090,6.304889,-7.355121,139.396454
17.007048,12.565613,-0.038147,-0.125911,-0.068857,6.303691,-7.294048,139.165634
17.022651,12.619019,-0.648499,-0.118281,0.000599,6.303691,-7.359911,139.420273
17.038257,13.015747,-0.679016,0.568364,-0.038320,6.296506,-7.347936,139.406448
17.053859,13.557434,-0.534058,0.415776,-0.040715,6.257587,-7.377873,139.696869
17.069476,13.206482,-0.877380,0.270818,-0.149090,6.077961,-7.387454,140.554474
17.085090,12.733459,-0.946045,0.347112,-0.135319,6.054010,-7.495230,141.071671
17.100693,11.634827,-0.709534,0.438665,-0.089214,6.048622,-7.499421,141.112259
17.116309,10.421753,-0.656128,0.064824,-0.055684,6.017487,-7.634140,141.753632
17.131920,9.315491,-0.381470,-0.095393,-0.125739,5.936655,-7.611987,142.049026
17.147522,8.827209,0.259399,-0.103022,-0.125140,6.042036,-7.625758,141.609528
17.163125,8.949280,0.518799,-0.347163,-0.111967,6.021079,-7.607795,141.640671
17.178729,9.544373,0.480652,-0.553157,-0.145497,6.011499,-7.670066,141.912048
17.194332,9.017944,0.633240,-0.301387,-0.180225,5.894742,-7.631746,142.317596
17.209935,8.468628,0.129700,-0.133540,-0.140707,5.921087,-7.723954,142.526672
17.225544,7.064819,-0.061035,0.087712,-0.112566,5.818101,-7.630548,142.675385
17.241152,6.004333,0.320435,-0.011470,-0.070653,5.852230,-7.690423,142.729721
17.256750,4.631042,0.282288,-0.301387,-0.052690,5.942642,-7.683239,142.279648
17.272350,4.096985,0.495911,-0.293757,-0.055684,5.903723,-7.713176,142.569290
17.287953,3.807068,0.328064,-0.041987,-0.050295,5.913303,-7.688627,142.436203
17.303558,4.295349,-0.335693,0.247930,-0.030536,5.922285,-7.672461,142.335876
17.319171,4.722595,-0.907898,0.347112,0.005389,5.907316,-7.644320,142.304153
17.334781,4.806519,-1.167297,0.759099,0.013173,5.892946,-7.647313,142.382507
17.350399,4.821777,-1.319885,0.736211,-0.004790,5.882767,-7.641325,142.408691
17.366011,4.058838,-1.304626,0.522588,-0.069456,5.871989,-7.628153,142.411682
17.381623,3.807068,-0.663757,0.453923,-0.113763,5.877977,-7.645517,142.446442
17.397237,3.646851,-0.816345,0.118230,-0.196990,5.918692,-7.582049,142.023727
17.412843,4.234314,-0.656128,0.080083,-0.130529,5.956414,-7.610190,141.950104
17.428449,4.653931,-0.984192,0.324224,-0.165256,5.865403,-7.610789,142.379669
17.444038,5.622864,0.091553,0.095342,-0.125739,5.831274,-7.621567,142.580338
17.459638,6.500244,-0.259399,0.095342,-0.070054,5.934858,-7.586839,141.965454
17.475245,6.881714,-0.228882,-0.049617,-0.144899,5.964197,-7.583246,141.815063
17.490841,7.034302,0.328064,0.049565,-0.128732,5.969586,-7.644918,142.015259
17.506449,7.575989,0.175476,0.125859,-0.126936,5.904921,-7.641924,142.306717
17.522042,8.300781,-0.640869,0.141118,-0.085023,5.902525,-7.656294,142.370026
17.537648,8.789062,-0.694275,0.301335,-0.091610,5.904921,-7.628752,142.258881
17.553259,10.078430,-0.518799,0.431035,-0.031734,5.964197,-7.616777,141.937836
17.568863,11.749268,-0.839233,0.339482,-0.032932,5.882168,-7.574265,142.167130
17.584477,12.428284,-0.671387,0.202153,-0.044907,5.777985,-7.670066,143.008698
17.600090,12.886047,-0.686646,0.232671,-0.007784,5.587581,-7.804187,144.398392
17.615694,11.962891,-1.258850,0.453923,-0.057480,5.457651,-7.690423,144.637894
17.631310,11.085510,-0.846863,0.110601,-0.202379,5.504354,-7.990400,145.438187
17.646921,9.857178,-0.419617,-0.041987,-0.161664,5.415139,-8.010757,145.941971
17.662548,9.704590,-0.404358,-0.095393,-0.176034,5.460645,-8.110749,146.049179
17.678110,9.437561,0.061035,-0.133540,-0.228724,5.419331,-8.135299,146.330429
17.693684,10.017395,0.251770,-0.049617,-0.231119,5.443880,-8.128114,146.187439
17.709266,11.192322,0.297546,-0.278499,-0.212558,5.403164,-8.077818,146.221863
17.724855,11.039734,0.762939,-0.751521,-0.130529,5.285209,-8.099972,146.875671
17.740424,10.398865,1.373291,-1.178767,-0.013771,5.204378,-8.167631,147.494904
17.756008,8.224487,1.815796,-1.529719,-0.020956,5.091812,-8.140687,147.974976
17.771566,5.409241,1.647949,-1.361873,-0.031135,5.048701,-8.194575,148.362671
17.787168,2.418518,0.823975,-0.743892,-0.035327,5.043313,-8.188587,148.371277
17.802754,0.503540,0.236511,-0.461604,0.000599,5.127737,-8.311333,148.327194
17.818316,-0.282288,-0.038147,-0.255610,0.059875,5.028344,-8.343066,148.922745
17.833900,-1.518250,0.213623,-0.896479,-0.004790,4.938530,-8.495151,149.829056
17.849483,-5.531311,0.190735,-0.637080,0.008981,4.749324,-8.572989,151.014114
17.865071,-6.835938,-0.312805,-0.537898,-0.121547,4.682263,-8.649629,151.572205
17.880654,-11.093140,-0.289917,-0.370051,-0.207768,4.675078,-8.692739,151.728012
17.896237,-17.066956,-0.144958,-0.087764,-0.167053,4.672084,-8.781954,151.986588
17.911802,-18.371582,-0.923157,0.125859,-0.017963,4.963079,-8.644839,150.139481
17.927373,-23.132324,-0.259399,-0.186946,-0.055085,4.939728,-8.474792,149.763245
17.942955,-25.253296,0.381470,0.209783,0.029938,5.051695,-8.437071,149.088943
17.958543,-26.214600,-0.183105,0.087712,-0.010778,5.110971,-8.192779,148.042496
17.974112,-31.066895,-0.450134,-0.240352,-0.023950,5.236112,-8.313727,147.796661
17.989689,-31.890869,-0.938416,0.469182,-0.134720,5.401368,-8.170026,146.530502
18.005294,-35.369873,-1.762390,1.010869,-0.034129,5.436096,-7.932321,145.576782
18.020897,-36.933899,-1.777649,1.125310,-0.080233,5.763016,-7.950882,144.064377
18.036516,-39.726257,-1.541138,0.766729,-0.290995,5.936655,-7.498223,141.629868
18.052106,-40.634155,-2.044678,1.705144,-0.135917,6.016888,-7.586240,141.580963
18.067702,-41.221619,-1.930237,1.117681,0.126936,6.303092,-7.435953,139.713684
18.083301,-40.550232,-1.792908,0.781987,-0.250878,6.271358,-7.395237,139.701172
18.098898,-38.429260,-1.678467,1.613591,-0.072449,6.761140,-7.228185,136.912155
18.114504,-40.069580,-1.579285,1.010869,-0.040117,6.406677,-6.935992,137.271774
18.130109,-37.460327,-1.693726,0.507329,-0.002994,6.764134,-7.028800,136.099274
18.145718,-39.123535,-0.976562,0.850652,-0.028141,6.506670,-6.627035,135.525085
18.161327,-38.467407,-1.602173,1.148198,-0.201182,6.964717,-6.884500,134.668137
18.176920,-41.007996,-2.082825,0.064824,-0.143102,6.924002,-6.557580,133.443115
18.192522,-41.198730,-1.693726,1.178716,-0.263452,7.214397,-6.657571,132.701355
18.208107,-37.078857,1.876831,-1.697566,1.099314,8.804690,-6.553987,126.663055
18.223706,-37.086487,1.190186,-6.366755,-0.023351,7.127578,-4.925374,124.645653
18.239318,-17.715454,-1.228333,-0.377681,-0.797541,9.695039,-7.462298,127.585587
18.254890,-19.668579,0.564575,3.330205,-0.085023,6.938971,-5.393600,127.857605
18.270484,-12.947083,-3.028870,0.751470,0.142504,7.227570,-5.434315,126.939026
18.286073,-13.793945,-2.220154,-0.865962,-0.191602,7.884404,-5.900745,126.811447
18.301658,-14.442444,3.112793,0.987981,-0.208367,7.070696,-5.329533,127.007133
18.317223,-12.107849,4.417419,0.675176,0.015568,7.877818,-5.909727,126.876244
18.332796,-14.648438,4.646301,-2.056148,-0.089813,7.562274,-5.734292,127.172165
18.348377,-10.192871,4.768372,-1.918818,-0.253872,7.745493,-5.815722,126.901146
18.363962,-6.187439,5.126953,-0.179316,-0.183818,7.864645,-5.870209,126.737831
18.379550,-1.991272,2.967834,-0.553157,-0.170046,7.734715,-5.696570,126.371422
18.395111,3.005981,1.472473,-1.453425,0.138911,7.667655,-5.905535,127.603027
18.410682,3.791809,1.029968,-0.759150,-0.138312,7.432943,-5.799556,127.963142
18.426264,5.218506,1.350403,0.072454,0.008981,7.470066,-5.737884,127.528481
18.441852,4.470825,0.923157,-0.492122,0.092208,7.531139,-5.778000,127.495941
18.457434,3.646851,1.075745,-0.125911,0.013173,7.390431,-5.761834,127.941208
18.473035,4.188538,1.068115,0.003789,0.101788,7.517966,-5.913319,128.187119
18.488628,5.104065,0.900269,-0.560786,-0.185015,8.114925,-6.188746,127.330505
18.504214,5.126953,1.106262,-0.331904,-0.055085,8.021519,-6.167191,127.554192
18.519799,6.927490,0.900269,-0.515010,-0.136516,7.389234,-5.808537,128.170227
18.535382,10.025024,1.380920,-0.110652,-0.014969,7.380253,-6.048638,129.337036
18.550964,12.504578,0.679016,-0.926997,-0.095202,7.378457,-6.268381,130.349625
18.566560,11.344910,0.732422,-1.094844,-0.158071,7.200626,-6.335441,131.342804
18.582171,9.796143,1.358032,-0.354792,-0.066462,7.149133,-6.448606,132.050842
18.597782,6.378174,1.365662,-1.026179,-0.059875,6.925199,-6.422860,132.844742
18.613399,5.523682,1.525879,-0.865962,-0.135917,7.235953,-6.426452,131.609177
18.629015,5.928040,2.426147,-0.164058,0.014969,7.314390,-6.455791,131.432114
18.644626,8.079529,2.151489,-0.408198,-0.041913,7.450906,-6.410285,130.706619
18.660225,11.177063,1.579285,-0.850703,-0.028740,7.280261,-6.378551,131.223022
18.675832,9.361267,4.165649,-0.469233,-0.155676,6.592890,-6.919227,136.383514
18.691434,7.308960,5.386353,-0.415828,-0.214953,6.568341,-6.680324,135.484268
18.707034,4.188538,8.026123,-2.223994,0.014370,7.174281,-7.218605,135.176437
18.722640,-0.808716,8.735657,-3.597285,-0.135319,6.437812,-6.554585,135.514954
18.738256,3.204346,8.247375,-2.971675,-0.011376,7.504794,-6.740200,131.927612
18.753869,1.304626,5.538940,-2.613093,-0.498763,7.020401,-6.451001,132.579712
18.769476,3.784180,2.006531,-0.469233,0.055684,7.113208,-6.706070,133.312469
18.785081,1.701355,0.518799,-0.324275,0.052690,7.101233,-6.419267,132.112488
18.800693,-0.335693,-1.525879,1.239751,0.231119,7.082073,-6.259998,131.474182
18.816310,-1.693726,-2.319336,0.362371,0.141306,7.200027,-6.268980,131.045700
18.831920,-3.189087,-2.944946,0.759099,0.255070,7.055727,-6.264189,131.599197
18.847522,-3.250122,-2.067566,0.743840,0.130529,7.144942,-6.346817,131.614532
18.863124,-3.288269,-2.174377,0.606511,0.338895,7.212003,-6.474352,131.914932
18.878726,-1.823425,-2.311707,0.171636,0.112566,7.244335,-6.561770,132.169632
18.894317,-0.236511,-2.197266,-0.141169,0.085023,7.265292,-6.620449,132.341141
18.909917,1.159668,-1.815796,0.049565,-0.005988,7.160510,-6.584523,132.600418
18.925493,1.846313,-1.838684,0.141118,-0.118553,7.137158,-6.557580,132.576614
18.941095,1.983643,-2.441406,0.431035,-0.125140,7.165898,-6.454594,132.010544
18.956691,1.518250,-3.120422,0.537847,-0.220941,7.250922,-6.345021,131.188004
18.972297,1.502991,-2.777100,0.621770,-0.221539,7.163504,-6.304905,131.352371
18.987897,1.731873,-1.411438,0.583623,-0.171244,7.204219,-6.372564,131.494690
19.003496,1.129150,-0.183105,0.232671,-0.159868,7.134164,-6.323466,131.552628
19.019085,1.075745,1.098633,-0.331904,-0.186812,7.124584,-6.360589,131.757416
19.034685,0.099182,2.166748,-0.652339,-0.208965,7.108418,-6.424057,132.104935
19.050295,-0.457764,2.487183,-0.751521,-0.220941,7.222181,-6.555184,132.228333
19.065900,-0.473022,2.365112,-0.453975,-0.085023,7.146738,-6.654578,132.957672
19.081503,-0.114441,1.365662,-0.247981,-0.034728,7.195238,-6.585721,132.467529
19.097088,0.366211,0.869751,-0.339534,0.033530,7.140751,-6.570153,132.616928
19.112672,1.205444,0.946045,-0.232722,0.105381,7.143744,-6.573746,132.620575
19.128236,1.579285,1.091003,-0.309016,0.137714,7.161108,-6.463575,132.069214
19.143809,2.105713,1.029968,-0.347163,0.123942,7.155121,-6.399508,131.809311
19.159400,2.365112,0.831604,-0.309016,0.106578,7.124584,-6.406693,131.963058
19.174963,1.792908,0.411987,-0.179316,0.128134,7.143146,-6.364780,131.702103
19.190542,0.854492,-0.267029,0.026677,0.126936,7.096443,-6.401304,132.051865
19.206125,-0.053406,-0.991821,0.102971,0.086819,7.060518,-6.449205,132.409149
19.221712,-1.296997,-1.495361,0.164006,0.029339,7.064110,-6.498302,132.611069
19.237302,-1.930237,-1.594543,0.408147,0.004191,7.127578,-6.534827,132.515747
19.252864,-1.525879,-1.937866,0.423406,0.002994,7.145541,-6.549197,132.506592
19.268449,-0.366211,-2.021790,0.186895,-0.067061,7.174281,-6.561172,132.444183
19.284049,0.434875,-1.831055,0.225042,-0.104782,7.103628,-6.530036,132.590881
19.299636,0.877380,-1.510620,0.263188,-0.087418,7.074888,-6.615060,133.076233
19.315227,0.358582,-1.678467,0.179265,-0.072449,7.101233,-6.430045,132.160309
19.330803,-0.244141,-1.899719,0.141118,-0.108375,7.157516,-6.368373,131.660965
19.346396,-0.175476,-1.533508,0.392888,-0.079036,7.211404,-6.313287,131.200821
19.361980,0.061035,-1.106262,0.270818,-0.070653,7.219188,-6.267183,130.962189
19.377561,0.480652,-0.396729,0.034307,-0.077838,7.199429,-6.312090,131.242630
19.393138,0.755310,0.663757,-0.225093,-0.067061,7.172485,-6.407292,131.774902
19.408721,0.442505,0.953674,-0.202205,-0.076641,7.159312,-6.443816,131.989151
19.424299,0.411987,1.136780,-0.270869,-0.076042,7.169491,-6.462976,132.033249
19.439871,0.816345,0.839233,-0.537898,-0.085622,7.194040,-6.493513,132.070160
19.455462,1.289368,0.701904,-0.232722,-0.065264,7.176676,-6.516265,132.238754
19.471045,2.075195,0.762939,-0.095393,-0.037722,7.159312,-6.528839,132.362839
19.486606,2.685547,0.556946,-0.240352,-0.026944,7.047944,-6.486328,132.623825
19.502189,2.059937,0.816345,-0.209834,-0.037722,7.103029,-6.560573,132.726501
19.517778,1.777649,1.098633,-0.019099,0.004790,7.068900,-6.471957,132.475784
19.533390,1.373291,0.701904,-0.301387,0.024549,7.120393,-6.484531,132.324081
19.549001,0.083923,0.228882,-0.263240,-0.001796,7.062912,-6.429446,132.311935
19.564612,-0.328064,-0.068665,0.080083,0.036524,7.120393,-6.477945,132.295090
19.580214,-0.503540,-0.335693,0.171636,0.044907,7.144942,-6.486926,132.236450
19.595807,-0.183105,-0.495911,0.034307,0.053888,7.132967,-6.501895,132.350021
19.611410,0.038147,-0.663757,0.049565,0.030536,7.130572,-6.558178,132.605576
19.627002,-0.213623,-0.579834,0.003789,0.047900,7.062314,-6.543808,132.817612
19.642612,-0.396729,-0.892639,-0.041987,0.013173,7.129973,-6.553987,132.589737
19.658214,-0.625610,-1.266479,0.057195,-0.018561,7.135362,-6.477346,132.232574
19.673813,-0.358582,-1.419067,0.255559,-0.017963,7.172485,-6.418668,131.825409
19.689417,0.259399,-1.686096,0.324224,-0.003593,7.205416,-6.470760,131.925140
19.705028,0.465393,-1.281738,0.278447,-0.052092,7.118597,-6.394119,131.931061
19.720633,0.503540,-1.007080,0.141118,-0.045505,7.132967,-6.440822,132.080948
19.736238,-0.419617,-0.640869,0.057195,-0.062271,7.139553,-6.436631,132.036087
19.751845,-0.381470,-0.343323,-0.125911,-0.088017,7.152127,-6.371367,131.695770
19.767456,-0.030518,-0.480652,0.041936,-0.102387,7.222181,-6.406693,131.575775
19.783065,0.801086,-0.534058,0.202153,-0.098196,7.248527,-6.428248,131.567749
19.798667,1.724243,-0.160217,0.095342,-0.071252,7.122190,-6.478544,132.290543
19.814269,2.014160,0.274658,0.095342,-0.039518,7.119794,-6.486926,132.337021
19.829874,1.800537,0.617981,-0.347163,-0.029339,7.101831,-6.482136,132.388000
19.845488,1.670837,0.976562,-0.408198,-0.048499,7.112010,-6.427649,132.106461
19.861099,1.243591,1.083374,-0.392939,-0.076042,7.095844,-6.412082,132.102203
19.876710,1.289368,0.816345,-0.103022,-0.032932,7.192244,-6.493513,132.077286
19.892310,1.533508,0.282288,0.064824,-0.023351,7.104227,-6.440822,132.196030
19.907919,1.037598,0.068665,0.041936,-0.019759,7.066505,-6.492315,132.575089
19.923518,0.556946,0.091553,-0.087764,0.027543,7.055727,-6.460581,132.478806
19.939115,0.000000,0.167847,-0.270869,0.030536,7.082073,-6.528839,132.672424
19.954720,-0.587463,-0.068665,-0.133540,0.055684,7.098838,-6.541413,132.659836
19.970326,-0.137329,-0.411987,0.118230,-0.004790,7.143744,-6.516864,132.372559
19.985940,0.137329,-0.801086,0.110601,0.034728,7.137158,-6.492914,132.293854
20.001550,0.396729,-1.251221,0.240300,-0.009580,7.088060,-6.474352,132.409088
20.017154,0.099182,-1.060486,0.202153,-0.032932,7.117399,-6.477945,132.307083
20.032761,-0.335693,-0.923157,0.255559,-0.019160,7.098239,-6.481537,132.399796
20.048377,-0.442505,-0.976562,0.072454,-0.047900,7.121591,-6.467167,132.242813
20.063982,-0.617981,-0.572205,0.125859,-0.087418,7.147936,-6.436032,132.000015
20.079589,-0.144958,-0.434875,0.133489,-0.075443,7.136559,-6.423458,131.989670
20.095194,-0.251770,-0.373840,-0.087764,-0.114362,7.140751,-6.451600,132.097519
20.110814,-0.633240,0.160217,-0.156428,-0.084424,7.091054,-6.486328,132.449768
20.126420,-0.610352,-0.022888,-0.011470,-0.062271,7.152726,-6.488722,132.213318
20.142032,-0.289917,0.144958,-0.057246,-0.070054,7.168293,-6.465371,132.048569
20.157637,0.274658,0.190735,-0.080134,-0.016166,7.201824,-6.456390,131.876038
20.173239,0.717163,0.137329,-0.080134,0.001796,7.168293,-6.430045,131.892487
20.188842,1.075745,0.205994,-0.049617,0.034728,7.143146,-6.435433,132.016464
20.204438,1.235962,0.198364,0.034307,0.035925,7.165300,-6.422261,131.869888
20.220043,1.365662,0.274658,-0.087764,0.025148,7.142547,-6.402502,131.872696
20.235648,1.358032,0.022888,-0.064875,0.038919,7.177275,-6.429446,131.854172
20.251229,1.403809,0.251770,0.072454,0.011376,7.114406,-6.471957,132.292725
20.266830,1.152039,-0.076294,-0.034358,-0.022753,7.116202,-6.490519,132.367203
20.282435,0.946045,-0.244141,-0.003840,-0.017963,7.095245,-6.549796,132.710861
20.298026,0.411987,-0.427246,0.156377,-0.034728,7.073690,-6.521055,132.672180
20.313626,0.366211,-0.785828,0.202153,-0.053888,7.119195,-6.580332,132.747452
20.329247,0.411987,-0.770569,0.110601,-0.010778,7.134763,-6.485729,132.271851
20.344859,0.999451,-0.747681,0.148748,-0.041913,7.098838,-6.473155,132.360474
20.360474,0.732422,-0.442505,-0.003840,-0.016166,7.103628,-6.470161,132.328033
20.376086,0.457764,-0.183105,-0.034358,-0.029339,7.122788,-6.442618,132.129593
20.391694,0.099182,-0.305176,-0.087764,-0.014370,7.117998,-6.410884,132.008057
20.407307,-0.183105,-0.633240,0.118230,-0.009580,7.117998,-6.482136,132.323135
20.422911,-0.244141,-0.778198,0.110601,-0.023950,7.134763,-6.486926,132.277100
20.438506,-0.244141,-0.740051,-0.011470,-0.008383,7.070097,-6.491716,132.557953
20.454105,-0.312805,-0.495911,-0.011470,-0.026944,7.134763,-6.513271,132.392731
20.469714,-0.259399,-0.282288,-0.003840,-0.046104,7.137757,-6.512673,132.378143
