Timestamp,Gyro_X_dps,Gyro_Y_dps,Gyro_Z_dps,Accel_X_mps2,Accel_Y_mps2,Accel_Z_mps2,Tilt_Angle_Deg
0.005554,0.274658,-0.144958,0.217412,-0.041314,-8.437055,-5.453475,-122.877495
0.021222,0.007629,-0.091553,0.141118,-0.035925,-8.437654,-5.460062,-122.907181
0.036812,0.076294,-0.289917,0.148748,-0.019160,-8.405321,-5.481018,-123.107933
0.052389,0.099182,-0.221252,0.171636,-0.013173,-8.383167,-5.494191,-123.240173
0.067966,0.450134,-0.190735,0.209783,-0.035925,-8.379575,-5.481617,-123.191269
0.083555,0.236511,-0.282288,0.110601,-0.055684,-8.401729,-5.456469,-123.001541
0.099146,0.083923,-0.350952,-0.087764,-0.048499,-8.401729,-5.461259,-123.024521
0.114718,0.190735,-0.396729,-0.148799,-0.020956,-8.425678,-5.473833,-123.010201
0.130287,0.503540,-0.419617,-0.103022,0.000000,-8.402328,-5.489401,-123.157356
0.145889,0.679016,-0.282288,0.095342,-0.004790,-8.414901,-5.500178,-123.169579
0.161508,0.549316,-0.267029,0.110601,-0.035327,-8.406519,-5.456469,-122.986626
0.177138,0.457764,-0.175476,0.064824,-0.061073,-8.428074,-5.445093,-122.865128
0.192755,0.205994,-0.404358,-0.034358,-0.024549,-8.418493,-5.454673,-122.940781
0.208369,0.297546,-0.373840,-0.087764,-0.012574,-8.410111,-5.468444,-123.032829
0.223973,0.602722,-0.328064,0.095342,-0.008383,-8.410111,-5.491197,-123.141647
0.239584,0.419617,-0.244141,0.164006,-0.022753,-8.402926,-5.458864,-123.009300
0.255162,0.572205,-0.320435,0.095342,-0.046703,-8.405321,-5.464852,-123.030548
0.270752,0.411987,-0.236511,0.041936,-0.036524,-8.418493,-5.478024,-123.052582
0.286368,0.564575,-0.343323,-0.103022,-0.024549,-8.407716,-5.489999,-123.143394
0.301969,0.724792,-0.320435,0.064824,-0.011376,-8.406519,-5.454673,-122.978020
0.317558,0.595093,-0.282288,0.156377,-0.045505,-8.416099,-5.455870,-122.953964
0.333142,0.305176,-0.167847,0.133489,-0.034728,-8.447234,-5.449883,-122.828812
0.348743,0.274658,-0.160217,-0.003840,-0.043110,-8.434061,-5.460660,-122.921165
0.364331,0.205994,-0.335693,-0.156428,-0.046703,-8.429272,-5.476228,-123.010490
0.379966,0.267029,-0.267029,-0.148799,-0.015568,-8.387958,-5.478623,-123.150703
0.395559,0.259399,-0.221252,-0.057246,-0.010778,-8.398136,-5.452278,-122.992638
0.411190,0.144958,-0.144958,0.209783,-0.038919,-8.393945,-5.473234,-123.106186
0.426771,0.205994,-0.167847,0.255559,-0.040715,-8.411907,-5.478024,-123.073082
0.442401,0.030518,-0.167847,0.118230,-0.040117,-8.429870,-5.466648,-122.962830
0.458010,0.038147,-0.213623,0.133489,-0.054487,-8.427475,-5.464253,-122.958786
0.473592,0.122070,-0.152588,0.255559,-0.028141,-8.423284,-5.481617,-123.054863
0.489202,0.160217,-0.114441,0.270818,-0.032333,-8.403524,-5.475030,-123.084885
0.504785,0.137329,-0.312805,0.171636,-0.053888,-8.392747,-5.463056,-123.061142
0.520369,-0.083923,-0.328064,-0.041987,-0.068857,-8.411308,-5.465450,-123.014771
0.535943,-0.022888,-0.289917,-0.034358,-0.050295,-8.402328,-5.479222,-123.108681
0.551521,0.106812,-0.358582,-0.011470,-0.022154,-8.408315,-5.487604,-123.130089
0.567098,0.282288,-0.205994,0.141118,-0.008981,-8.401729,-5.475629,-123.093353
0.582677,0.442505,-0.267029,0.202153,-0.049098,-8.412506,-5.477426,-123.068359
0.598277,0.251770,-0.076294,0.217412,-0.044308,-8.403524,-5.489999,-123.156479
0.613850,0.144958,-0.282288,0.110601,-0.042512,-8.386760,-5.478024,-123.151573
0.629421,0.228882,-0.328064,-0.026729,-0.037722,-8.403524,-5.478623,-123.102081
0.645016,0.160217,-0.236511,-0.041987,-0.038320,-8.416698,-5.483413,-123.083931
0.660603,0.274658,-0.289917,0.118230,-0.029938,-8.419092,-5.461858,-122.973351
0.676208,0.175476,-0.282288,0.164006,-0.052092,-8.408914,-5.486407,-123.122490
0.691832,0.144958,-0.167847,0.110601,-0.037123,-8.393346,-5.477426,-123.128120
0.707421,-0.022888,-0.274658,-0.110652,-0.023950,-8.416099,-5.494191,-123.137276
0.723009,0.045776,-0.343323,0.041936,-0.016765,-8.405321,-5.522332,-123.305092
0.738621,0.305176,-0.152588,0.217412,-0.019160,-8.406519,-5.483413,-123.115646
0.754232,0.518799,-0.205994,0.225042,-0.038320,-8.398136,-5.484012,-123.144676
0.769829,0.396729,-0.038147,0.362371,-0.043709,-8.418493,-5.483413,-123.078339
0.785433,0.381470,-0.228882,0.232671,-0.050295,-8.395143,-5.461259,-123.045052
0.801067,0.190735,-0.328064,0.072454,-0.034129,-8.395741,-5.459463,-123.034576
0.816653,0.160217,-0.183105,-0.072505,-0.027543,-8.393945,-5.482215,-123.149170
0.832246,0.144958,-0.442505,-0.041987,-0.043110,-8.409513,-5.466049,-123.023224
0.847852,0.114441,-0.442505,-0.041987,-0.047302,-8.420290,-5.461259,-122.966766
0.863461,-0.190735,-0.373840,-0.080134,-0.055085,-8.419691,-5.473234,-123.025955
0.879064,-0.183105,-0.259399,0.019048,-0.031734,-8.438851,-5.485209,-123.023659
0.894661,-0.312805,-0.228882,0.026677,-0.010179,-8.431666,-5.458864,-122.919991
0.910271,-0.259399,-0.274658,0.041936,-0.031734,-8.405920,-5.478024,-123.091743
0.925889,-0.396729,-0.205994,-0.003840,-0.026345,-8.423882,-5.442698,-122.866631
0.941506,-0.511169,-0.282288,0.110601,-0.041314,-8.390951,-5.485808,-123.175728
0.957111,-0.770569,-0.083923,0.270818,-0.020358,-8.415500,-5.488802,-123.113411
0.972704,-0.877380,-0.244141,0.057195,-0.025746,-8.416698,-5.465450,-122.998009
0.988312,-0.938416,-0.251770,-0.034358,-0.044308,-8.411907,-5.500777,-123.181778
1.003917,-0.968933,-0.358582,-0.019099,-0.027543,-8.412506,-5.527122,-123.305420
1.019501,-0.816345,-0.213623,0.148748,-0.022154,-8.419092,-5.519937,-123.250656
1.035117,-0.770569,-0.198364,0.156377,-0.013173,-8.395741,-5.518740,-123.317970
1.050705,-0.869751,-0.091553,0.255559,-0.052092,-8.361013,-5.507363,-123.372726
1.066282,-0.762939,-0.259399,0.278447,-0.113165,-8.341254,-5.707946,-124.383957
1.081859,-0.732422,-0.099182,0.164006,-0.055684,-8.365205,-5.554066,-123.582123
1.097439,-0.602722,-0.259399,0.141118,-0.017963,-8.327483,-5.718125,-124.475716
1.113017,-0.175476,-0.289917,0.133489,-0.017364,-8.320298,-5.436111,-123.158813
1.128606,0.236511,-0.328064,-0.049617,-0.036524,-8.340056,-5.424735,-123.041733
1.144202,0.526428,-0.251770,0.118230,-0.060474,-8.328680,-5.560652,-123.729095
1.159799,0.549316,-0.167847,0.019048,-0.034728,-8.338860,-5.715730,-124.428032
1.175392,0.755310,-0.373840,-0.034358,0.000000,-8.355025,-5.601966,-123.841492
1.190967,1.579285,-0.503540,-0.125911,-0.029938,-8.338860,-5.552869,-123.659752
1.206555,1.846313,-0.160217,0.057195,-0.052092,-8.339458,-5.524727,-123.523697
1.222159,1.884460,-0.129700,0.232671,-0.065264,-8.359816,-5.515147,-123.413681
1.237753,1.770020,-0.267029,0.247930,-0.017364,-8.349637,-5.524727,-123.491531
1.253327,1.991272,-0.259399,0.118230,0.147294,-8.432265,-5.548079,-123.343246
1.268911,2.502441,-0.503540,-0.240352,-0.087418,-8.400531,-5.590590,-123.643936
1.284521,2.944946,-0.473022,-0.324275,-0.034129,-8.390951,-5.497783,-123.232979
1.300101,3.005981,-0.518799,-0.621821,-0.005988,-8.398136,-5.459463,-123.027100
1.315694,3.051758,-0.595093,-0.560786,-0.074844,-8.393346,-5.461858,-123.053535
1.331293,2.593994,-0.602722,-0.698115,-0.078437,-8.459807,-5.404976,-122.574532
1.346867,2.052307,-0.564575,-0.728633,-0.070653,-8.444839,-5.376835,-122.484932
1.362444,1.091003,-0.701904,-0.865962,-0.009580,-8.478369,-5.385816,-122.425430
1.378042,0.602722,-0.770569,-0.820186,0.002994,-8.483758,-5.376835,-122.365692
1.393632,0.320435,-0.404358,-0.370051,-0.001796,-8.466992,-5.398989,-122.523674
1.409210,-0.236511,-0.244141,0.102971,0.026944,-8.448431,-5.443296,-122.793549
1.424796,-0.602722,1.846313,0.400518,-0.010179,-8.440049,-5.429525,-122.753372
1.440382,-0.968933,1.823425,0.659917,0.136516,-8.450228,-5.443296,-122.788002
1.455974,-1.029968,-0.068665,0.835393,-0.031734,-8.424481,-5.464253,-122.968086
1.471567,-1.045227,0.152588,0.835393,-0.067659,-8.395143,-5.473234,-123.102440
1.487156,-1.159668,0.129700,1.003240,-0.047900,-8.397537,-5.478623,-123.120773
1.502728,-1.152039,0.228882,0.743840,-0.071252,-8.386760,-5.498981,-123.251816
1.518321,-0.839233,-0.022888,0.331853,-0.041913,-8.392747,-5.542091,-123.438499
1.533891,-0.511169,-0.419617,-0.057246,-0.041314,-8.352631,-5.534906,-123.530609
1.549496,-0.068665,-0.419617,0.049565,-0.034728,-8.343649,-5.545683,-123.610374
1.565087,0.297546,-0.297546,-0.156428,-0.059277,-8.367001,-5.529517,-123.459602
1.580675,0.473022,-0.312805,-0.095393,-0.057480,-8.379575,-5.533110,-123.437149
1.596262,0.801086,-0.289917,0.011418,-0.032333,-8.380174,-5.541492,-123.475166
1.611852,1.007080,-0.267029,-0.026729,-0.052092,-8.373587,-5.500178,-123.298851
1.627442,1.007080,-0.419617,-0.103022,-0.065264,-8.393945,-5.475030,-123.114792
1.643038,0.724792,-0.358582,-0.232722,-0.043110,-8.404123,-5.473234,-123.074425
1.658603,0.617981,-0.503540,-0.347163,-0.048499,-8.420290,-5.433716,-122.834656
1.674190,0.122070,-0.701904,-0.446345,-0.018561,-8.431666,-5.455870,-122.905663
1.689780,0.114441,-0.663757,-0.377681,-0.043110,-8.447833,-5.457068,-122.861343
1.705378,-0.259399,-0.419617,-0.171687,0.022154,-8.304132,-5.449284,-123.273438
1.720987,-0.610352,-0.312805,0.247930,0.010778,-8.313113,-5.427130,-123.138092
1.736600,-1.029968,-0.076294,0.499700,-0.004790,-8.428673,-5.447488,-122.874763
1.752209,-1.632690,-0.038147,0.774358,-0.023351,-8.564590,-5.425932,-122.355515
1.767824,-2.082825,-0.038147,0.865911,-0.044907,-8.445437,-5.443895,-122.805664
1.783428,-2.204895,0.091553,0.637029,-0.020956,-8.465197,-5.459463,-122.819206
1.799042,-2.319336,-0.228882,0.408147,-0.029339,-8.573571,-5.472635,-122.550682
1.814637,-2.723694,-0.152588,0.148748,-0.048499,-8.427475,-5.460062,-122.938736
1.830244,-2.899170,-0.114441,-0.034358,-0.093406,-8.418493,-5.517542,-123.241135
1.845849,-3.334045,-0.328064,-0.034358,-0.058079,-8.341254,-5.527122,-123.529449
1.861444,-3.410339,-0.267029,-0.286128,-0.051493,-8.338261,-5.507363,-123.444496
1.877036,-3.364563,-0.289917,-0.278499,-0.043110,-8.344847,-5.567838,-123.711967
1.892619,-3.471375,-0.274658,-0.194575,-0.035327,-8.380772,-5.569634,-123.606941
1.908206,-3.440857,-0.358582,0.049565,-0.013173,-8.356223,-5.600170,-123.829185
1.923787,-3.448486,-0.228882,0.202153,-0.010179,-8.323292,-5.560054,-123.743385
1.939349,-3.257751,-0.038147,2.269719,-0.030536,-8.312514,-5.616337,-124.044868
1.954918,-3.158569,-0.251770,-1.560237,-0.016765,-8.299940,-5.624719,-124.124779
1.970491,-3.021240,-0.106812,0.453923,-0.028141,-8.305329,-5.636694,-124.164108
1.986072,-2.975464,-0.068665,0.591252,-0.083227,-8.282577,-5.625917,-124.186195
2.001648,-3.173828,-0.030518,0.575994,-0.050894,-8.294552,-5.617534,-124.108063
2.017229,-3.089905,-0.099182,0.667546,-0.073647,-8.311316,-5.637293,-124.147758
2.032815,-3.334045,-0.068665,0.621770,-0.053888,-8.281978,-5.652861,-124.315483
2.048404,-3.395081,-0.213623,0.476812,-0.062271,-8.310718,-5.642682,-124.175110
2.063995,-3.303528,-0.183105,0.347112,-0.065863,-8.280780,-5.646275,-124.288239
2.079561,-3.593445,-0.190735,0.217412,-0.061073,-8.312514,-5.655256,-124.228645
2.095140,-3.906250,-0.236511,0.019048,-0.034728,-8.226892,-5.635497,-124.411499
2.110724,-4.539490,-0.297546,0.087712,-0.086819,-8.349637,-5.645077,-124.062096
2.126289,-4.684448,-0.312805,-0.011470,-0.038320,-8.280181,-5.651663,-124.315620
2.141871,-5.149841,-0.457764,0.080083,0.001198,-8.311316,-5.659447,-124.252235
2.157438,-7.675171,-0.205994,0.026677,-0.025148,-8.319100,-5.644478,-124.156746
2.173025,-6.233215,-0.221252,-0.011470,-0.043110,-8.305927,-5.654058,-124.244133
2.188612,-7.446289,-0.152588,0.148748,-0.001796,-8.286169,-5.658249,-124.327393
2.204203,-8.178711,-0.091553,0.286077,0.001198,-8.287965,-5.691181,-124.476616
2.219798,-8.712769,-0.038147,0.545476,0.020358,-8.290360,-5.576819,-123.928207
2.235388,-9.452820,0.183105,0.644658,0.009580,-8.293953,-5.750458,-124.734787
2.250958,-10.017395,0.358582,0.659917,-0.055085,-8.234676,-5.760637,-124.975029
2.266534,-10.627747,0.442505,0.682805,-0.079634,-8.205935,-5.794765,-125.228500
2.282125,-11.444092,0.328064,0.598882,-0.077838,-8.149054,-5.840870,-125.631218
2.297721,-12.245178,0.419617,0.446294,-0.048499,-8.128098,-5.904936,-125.997826
2.313316,-12.672424,0.282288,0.431035,0.121547,-8.075407,-5.967207,-126.462021
2.328893,-12.954712,0.282288,0.606511,-0.012574,-8.023914,-6.010317,-126.835068
2.344512,-13.526917,0.152588,0.286077,-0.007784,-7.986792,-6.034866,-127.074905
2.360126,-13.771057,0.129700,0.087712,-0.091011,-7.958650,-6.089952,-127.423187
2.375738,-13.542175,0.183105,0.125859,-0.091011,-7.980804,-6.107914,-127.427750
2.391368,-13.633728,0.167847,0.247930,-0.037722,-7.900571,-6.145037,-127.875664
2.406967,-13.999939,0.038147,0.118230,-0.038919,-7.870034,-6.188746,-128.180405
2.422571,-14.312744,-0.083923,0.186895,-0.101788,-7.764653,-6.127075,-128.276901
2.438192,-14.503479,-0.366211,0.881169,-0.085622,-7.744296,-6.286942,-129.070251
2.453806,-15.167236,-0.122070,1.110051,-0.050295,-7.732321,-6.319874,-129.260239
2.469427,-14.633179,0.335693,1.178716,0.039518,-7.789202,-6.485130,-129.780075
2.485019,-13.725281,0.373840,1.079534,-0.034129,-7.771240,-6.389329,-129.426239
2.500629,-13.153076,0.213623,0.919316,0.098196,-7.705377,-6.337237,-129.435364
2.516231,-14.167786,0.198364,0.202153,0.105980,-7.688013,-6.366577,-129.628754
2.531834,-14.541626,-0.045776,-0.499751,0.031734,-7.608977,-6.485729,-130.443573
2.547436,-14.564514,-0.534058,-0.469233,-0.147294,-7.568861,-6.460581,-130.483200
2.563057,-13.771057,-0.534058,0.041936,-0.469424,-7.388635,-6.698885,-132.196945
2.578645,-12.649536,-0.823975,-0.011470,-0.055085,-7.539522,-6.465371,-130.614105
2.594249,-12.199402,-1.274109,-0.141169,0.061672,-7.325766,-6.597097,-132.004105
2.609850,-14.335632,-0.228882,-0.209834,-0.067061,-7.368876,-6.605480,-131.873138
2.625459,-13.618469,-0.244141,0.896428,-0.200583,-7.467072,-6.825223,-132.428650
2.641059,-12.092590,-0.106812,1.438115,0.115560,-7.488029,-6.741996,-131.998932
2.656663,-11.238098,-0.701904,0.522588,0.008383,-7.436536,-6.713255,-132.073822
2.672268,-11.291504,-0.205994,-0.103022,-0.014969,-7.360494,-6.708466,-132.346527
2.687883,-11.199951,-0.389099,0.690435,-0.179626,-7.333550,-6.799476,-132.835876
2.703493,-11.360168,-0.114441,1.300786,-0.055085,-7.319778,-6.837198,-133.047668
2.719079,-11.611938,-0.114441,0.247930,-0.147892,-7.243138,-6.783909,-133.124863
2.734677,-11.512756,-0.671387,-0.522639,-0.235311,-7.232959,-6.829414,-133.356247
2.750293,-10.765076,-0.366211,0.156377,-0.198188,-7.181466,-6.962337,-134.112396
2.765881,-10.116577,1.785278,0.621770,0.099992,-7.127578,-6.986288,-134.426437
2.781490,-9.307861,-0.114441,-0.011470,0.064666,-7.150929,-6.976708,-134.293472
2.797089,-9.307861,-0.411987,-0.377681,-0.174836,-7.133566,-6.941980,-134.220184
2.812688,-8.636475,-0.381470,0.041936,-0.152084,-7.172485,-6.995868,-134.285812
2.828288,-8.499146,-0.366211,0.057195,0.012574,-7.157516,-7.016226,-134.428879
2.843879,-8.392334,-0.503540,-0.354792,-0.001796,-7.198231,-6.987485,-134.148865
2.859490,-8.178711,-0.495911,-0.255610,-0.126936,-7.168892,-6.951560,-134.118210
2.875100,-8.125305,-0.350952,-0.072505,-0.055684,-7.156318,-7.001257,-134.372498
2.890713,-8.590698,-0.305176,-0.255610,0.025148,-7.126380,-7.006646,-134.514603
2.921537,-9.307861,-0.396729,-0.232722,-0.082029,-7.125183,-7.051552,-134.702423
2.937145,-9.529114,-0.244141,0.209783,-0.050894,-7.095245,-7.058138,-134.849792
2.952752,-9.712219,-0.251770,0.240300,-0.037722,-7.012018,-7.086879,-135.304214
2.968342,-10.406494,-0.213623,0.400518,-0.085023,-6.930588,-7.154538,-135.910919
2.983950,-10.459900,-0.244141,0.698064,-0.062271,-6.886280,-7.216808,-136.342575
2.999547,-10.154724,-0.152588,0.888799,-0.020358,-6.762338,-7.249740,-136.992203
3.015163,-9.651184,-0.297546,0.896428,-0.023351,-7.049141,-7.273690,-135.898193
3.030789,-9.201050,-0.228882,0.637029,-0.093406,-6.838379,-7.265307,-136.733856
3.046376,-8.979797,-0.381470,0.324224,-0.120948,-6.822213,-7.255129,-136.761444
3.062000,-9.361267,-0.244141,-0.041987,-0.119152,-6.771918,-7.274888,-137.050690
3.077591,-9.552002,-0.358582,-0.461604,-0.125739,-6.749165,-7.304227,-137.261810
3.093207,-9.841919,-0.396729,-0.553157,-0.079036,-6.797065,-7.337158,-137.188309
3.108804,-9.506226,-0.228882,-0.621821,-0.068258,-6.809639,-7.335961,-137.130859
3.124389,-9.338379,-0.358582,-1.018550,-0.049098,-6.794671,-7.353923,-137.263550
3.139966,-9.452820,-0.427246,-1.308467,-0.065863,-6.797065,-7.373682,-137.330124
3.155569,-9.315491,-0.480652,-1.300837,-0.040117,-6.764733,-7.371886,-137.459274
3.171166,-9.963989,-0.602722,-1.201655,-0.021555,-6.778504,-7.380867,-137.436005
3.186772,-10.643005,-0.556946,-1.064326,-0.039518,-6.622828,-7.309017,-137.819717
3.202376,-11.619568,-0.328064,-0.644709,-0.122745,-6.628815,-7.365300,-138.012589
3.217958,-12.214661,-0.457764,-0.202205,-0.107776,-6.695277,-7.501217,-138.249222
3.233536,-12.893677,-0.274658,0.209783,-0.129930,-6.665938,-7.437150,-138.130051
3.249113,-13.389587,-0.503540,0.629399,-0.086819,-6.623426,-7.531155,-138.669342
3.264689,-13.748169,-0.099182,0.850652,-0.040117,-6.600674,-7.542531,-138.809952
3.280288,-13.900757,-0.312805,-1.567866,0.002395,-6.533613,-7.597018,-139.303696
3.295866,-14.312744,-0.434875,-0.400569,-0.057480,-6.527027,-7.620369,-139.419159
3.311460,-14.732361,-0.473022,-0.576045,-0.098196,-6.516249,-7.596419,-139.376831
3.327054,-15.258789,-0.457764,-0.515010,-0.004191,-6.454577,-7.585043,-139.603500
3.342639,-16.990662,-0.167847,-0.446345,0.070054,-6.019882,-7.995789,-143.024582
3.358213,-16.822815,-0.358582,-0.461604,-0.023351,-6.315667,-7.713775,-140.691040
3.373820,-17.066956,-0.373840,0.011418,-0.114362,-6.439010,-7.667671,-139.977768
3.389416,-17.112732,-0.160217,0.591252,-0.092208,-6.223458,-7.765268,-141.289642
3.405028,-17.707825,-0.099182,0.911687,-0.089813,-6.173163,-7.810174,-141.677155
3.420628,-17.738342,-0.267029,1.056646,-0.014370,-6.168972,-7.885019,-141.961578
3.436232,-17.814636,-0.343323,0.797246,-0.077838,-6.128855,-7.904179,-142.210205
3.451853,-17.791748,-0.419617,0.301335,-0.098196,-6.097720,-7.905975,-142.357727
3.467420,-18.310547,-0.358582,-0.148799,-0.098795,-6.056406,-7.920944,-142.598236
3.482990,-19.081116,-0.183105,-0.270869,0.133522,-6.356382,-7.894000,-141.158401
3.498583,-20.294189,0.045776,-0.782039,0.005988,-5.739066,-8.162243,-144.888031
3.514167,-20.523071,-0.244141,-1.155879,-0.150287,-5.924680,-8.001776,-143.482986
3.529743,-19.233704,0.572205,-0.896479,-0.125739,-5.624104,-8.062849,-145.102951
3.545323,-20.980835,0.778198,-1.003291,0.005389,-5.470823,-8.107756,-145.989944
3.560909,-22.438049,0.343323,-2.132442,0.022154,-5.688171,-7.944296,-144.397064
3.576472,-21.369934,-0.160217,-1.926448,-0.185015,-5.640271,-8.279598,-145.736313
3.592052,-19.645691,-0.221252,-1.674678,0.001198,-5.688171,-8.021535,-144.659058
3.607615,-17.707825,-0.511169,-1.895930,0.037123,-5.668413,-8.287981,-145.630539
3.623203,-16.845703,-0.785828,-2.140071,-0.125140,-5.444478,-8.425096,-147.128586
3.638765,-16.967773,-0.282288,-1.697566,0.016166,-5.272635,-8.210143,-147.291016
3.654335,-17.898560,-0.839233,-1.400020,0.122745,-5.239704,-8.167032,-147.317093
3.669908,-20.103455,-0.846863,0.102971,0.086819,-5.129533,-8.347857,-148.430389
3.685493,-20.759583,-0.396729,2.429936,0.049697,-5.055287,-8.426892,-149.040497
3.701053,-19.615173,-0.610352,3.383611,-0.015568,-4.987628,-8.349054,-149.146408
3.716621,-19.927979,-0.717163,3.292058,-0.059875,-5.014572,-8.326302,-148.941269
3.732200,-19.775391,-0.251770,3.154729,-0.255070,-5.053491,-8.694535,-149.833725
3.747779,-18.455505,0.457764,3.292058,-0.090412,-4.629573,-8.587957,-151.671906
3.763365,-17.982483,-0.251770,2.468083,-0.029938,-4.674479,-8.953796,-152.432434
3.778953,-18.028259,-0.968933,1.659368,-0.050894,-4.785848,-8.622684,-150.968430
3.794535,-16.075134,-1.518250,0.408147,-0.059875,-4.856501,-8.851409,-151.247757
3.810118,-14.755249,-0.595093,0.652288,-0.074844,-4.879852,-9.058578,-151.688660
3.825700,-11.535645,-0.389099,1.018499,-0.179028,-4.708010,-8.946611,-152.245132
3.841287,-9.124756,-0.122070,0.453923,-0.156275,-4.613406,-8.593945,-151.772186
3.856869,-9.941101,-0.358582,0.072454,-0.082029,-4.572092,-8.527483,-151.801590
3.872462,-10.406494,-0.083923,-0.286128,-0.011376,-4.609814,-8.662802,-151.980820
3.888065,-10.421753,-0.205994,-0.934626,-0.031734,-4.617598,-8.823867,-152.376587
3.903665,-10.307312,0.183105,-1.194026,-0.038919,-4.689448,-9.034628,-152.568314
3.919268,-9.193420,0.221252,-1.590754,-0.009580,-4.483477,-8.701122,-152.739059
3.934855,-7.942200,-0.534058,-2.277400,-0.108375,-4.790039,-8.878353,-151.652298
3.950458,-6.835938,-0.694275,-1.918818,0.010778,-4.481081,-8.889131,-153.246964
3.966053,-6.782532,-0.282288,-0.675227,-0.025148,-4.466113,-8.801713,-153.096115
3.981660,-7.286072,-0.656128,1.132939,0.000599,-4.328998,-8.783750,-153.764008
3.997272,-7.102966,-0.831604,2.017949,0.074844,-4.411027,-8.810694,-153.405411
4.012857,-6.706238,-0.686646,2.727483,0.023950,-4.507427,-8.858594,-153.032104
4.028438,-6.248474,-0.617981,3.124211,-0.107776,-4.542154,-8.884939,-152.922989
4.044030,-5.821228,-0.495911,2.994512,-0.036524,-4.190685,-8.555624,-153.903625
4.059616,-5.577087,-0.831604,2.696965,-0.249681,-4.582271,-8.765188,-152.400299
4.075204,-5.905151,-0.526428,2.002690,-0.408950,-4.245172,-8.871168,-154.427216
4.090798,-7.057190,0.000000,0.522588,-0.340093,-3.698509,-8.766985,-157.126678
4.106386,-7.347107,0.061035,-1.544978,-0.113763,-4.368515,-8.941222,-153.960709
4.121973,-7.141113,0.000000,-3.154780,0.012574,-4.288282,-8.997505,-154.517151
4.137558,-5.416870,0.465393,-3.322627,0.118553,-4.307443,-8.966969,-154.341873
4.153145,-3.150940,0.061035,-2.613093,-0.058678,-4.457730,-9.111868,-153.931091
4.168741,-1.785278,-0.511169,-1.491572,-0.062271,-4.563710,-8.922661,-152.911438
4.184328,-1.464844,-0.450134,-0.858333,-0.078437,-4.537364,-8.779559,-152.669617
4.199907,-3.196716,-0.022888,-0.598933,-0.046703,-4.533772,-8.774170,-152.673782
4.215495,-5.973816,-0.518799,-0.148799,-0.077239,-4.574487,-8.841230,-152.642776
4.231076,-7.987976,-0.366211,0.705693,-0.053888,-4.578679,-8.856199,-152.660919
4.246666,-9.948730,-0.335693,1.201604,-0.022154,-4.511019,-8.888532,-153.091751
4.262283,-10.688782,-0.503540,0.965093,-0.022154,-4.502038,-8.981937,-153.378479
4.277887,-11.383057,-0.465393,0.804875,-0.069456,-4.433780,-8.977747,-153.716934
4.293511,-12.298584,-0.282288,0.522588,-0.105980,-4.339177,-8.957389,-154.153320
4.309129,-13.664246,-0.404358,0.164006,-0.117955,-4.288881,-8.882545,-154.226715
4.324744,-15.480042,-0.503540,0.102971,-0.180824,-4.279900,-8.892124,-154.297852
4.340361,-17.257690,-0.205994,0.164006,-0.117356,-4.237987,-8.989123,-154.758133
4.355966,-18.463135,-0.190735,-0.461604,-0.089813,-4.229605,-9.078338,-155.019150
4.371576,-19.737244,0.236511,-0.972773,-0.062271,-4.045787,-9.089115,-156.004990
4.387173,-19.531250,0.160217,-1.392390,-0.018561,-4.079916,-9.163361,-155.999344
4.402778,-19.889832,0.068665,-1.522090,0.040117,-3.978127,-9.250779,-156.730759
4.418384,-20.820618,0.030518,-1.354243,0.030536,-3.951184,-9.128633,-156.595398
4.433998,-22.354126,-0.129700,-0.965144,-0.161664,-3.824247,-9.090911,-157.185104
4.449589,-24.002075,-0.129700,-0.011470,-0.104782,-3.793112,-9.110670,-157.396225
4.465202,-25.558472,-0.106812,-0.301387,0.121547,-3.981720,-9.043011,-156.235672
4.480817,-25.405884,0.251770,-0.896479,-0.048499,-3.644621,-9.304667,-158.609802
4.496425,-26.557922,0.289917,-0.957515,0.057480,-3.856580,-9.301074,-157.479233
4.512043,-26.214600,-0.144958,-0.110652,0.023950,-3.490741,-9.398671,-159.624603
4.527657,-26.626587,-0.167847,0.339482,-0.026345,-2.812352,-9.581291,-163.641708
4.543266,-26.832581,-0.335693,0.217412,0.076641,-3.163821,-9.129231,-160.885757
4.558884,-28.648376,1.258850,-0.637080,-0.200583,-2.976411,-9.162762,-162.004242
4.574506,-31.814575,1.083374,-0.644709,-0.300575,-3.367996,-9.362746,-160.215179
4.590128,-33.523560,0.205994,-0.522639,-0.071851,-3.208727,-9.521416,-161.376129
4.605712,-32.737732,0.228882,-1.026179,0.010179,-2.801574,-9.885459,-164.177078
4.621305,-29.533386,-0.755310,-0.270869,0.090412,-2.797982,-9.848935,-164.140701
4.636910,-30.288696,-1.548767,-0.400569,0.225132,-2.694397,-9.499861,-164.165344
4.652519,-30.746460,-0.717163,0.995610,0.094005,-2.509980,-9.477707,-165.166885
4.668113,-31.471252,-1.266479,4.230474,-0.067659,-2.407593,-9.651346,-165.993042
4.683713,-31.692505,-2.113342,3.124211,-0.220941,-2.321971,-9.663919,-166.489517
4.699314,-31.288147,-2.365112,4.421208,-0.230521,-2.180067,-9.602248,-167.208572
4.714920,-31.112671,-1.930237,3.971074,-0.159269,-2.120191,-9.644759,-167.601974
4.730526,-30.265808,-1.701355,2.963994,-0.152084,-1.939367,-9.671104,-168.660751
4.746138,-30.319214,-1.258850,2.315495,0.035327,-1.748364,-9.640568,-169.720856
4.761745,-29.945374,-0.411987,1.850103,-0.128134,-1.505869,-9.630389,-171.112839
4.777361,-27.900696,-2.120972,1.178716,0.046703,-1.431024,-9.748344,-171.648819
4.792982,-26.245117,-0.907898,1.628850,-0.111368,-1.381926,-9.808819,-171.980591
4.808578,-25.375366,0.419617,1.377080,-0.041913,-0.976569,-9.661525,-174.228256
4.824165,-22.819519,-0.381470,-0.034358,-0.338895,-1.302891,-9.622006,-172.288620
4.839750,-21.453857,-0.198364,-0.415828,0.067061,-1.132844,-9.836361,-173.430252
4.855338,-19.859314,0.175476,-0.728633,-0.007185,-1.163381,-9.796844,-173.227798
4.870924,-19.195557,0.373840,-1.804377,-0.226329,-0.941243,-9.737567,-174.478897
4.886513,-21.308899,1.106262,-2.971675,-0.221539,-1.087938,-9.608235,-173.539932
4.902100,-19.439697,1.838684,-4.161860,-0.259860,-0.984952,-9.607038,-174.146255
4.917662,-18.623352,2.128601,-4.344966,-0.120948,-1.009501,-9.562730,-173.973831
4.933237,-17.471313,1.548767,-3.658320,-0.062869,-0.931064,-9.776485,-174.559845
4.948824,-16.479492,1.853943,-3.170039,0.110770,-0.928070,-9.771695,-174.574585
4.964396,-15.846252,1.266479,-3.185298,0.090412,-0.914897,-9.629790,-174.572784
4.979978,-15.441895,1.251221,-2.384212,0.053888,-0.865201,-9.784868,-174.946915
4.995555,-15.914917,0.633240,-0.896479,0.050894,-0.889151,-9.777683,-174.804001
5.011141,-16.136169,-0.267029,-0.019099,-0.025148,-0.890348,-9.827978,-174.823517
5.026726,-16.166687,-0.518799,0.575994,0.006586,-0.974773,-9.981259,-174.422165
5.042289,-16.288757,-0.877380,1.178716,-0.291594,-1.108295,-9.847737,-173.578766
5.057881,-15.914917,-0.785828,1.338933,-0.184417,-0.828677,-9.970482,-175.248901
5.073451,-16.540527,-0.488281,1.407598,-0.124541,-0.768203,-9.813608,-175.524063
5.089053,-16.853333,-0.205994,0.453923,0.016166,-0.552651,-9.734572,-176.750687
5.104643,-17.288208,0.122070,-0.827815,0.089813,-0.462838,-9.794448,-177.294495
5.120257,-17.593384,0.640869,-1.087214,0.049697,-0.480800,-9.752536,-177.177612
5.135853,-17.860413,0.198364,-1.331355,0.005389,-0.425116,-9.795646,-177.514999
5.151439,-17.723083,0.152588,-1.194026,0.028740,-0.405357,-9.839355,-177.640884
5.167049,-17.547607,-0.129700,-0.545527,0.152084,-0.235909,-9.653142,-178.600052
5.182665,-17.524719,-0.564575,0.370000,0.044907,-0.198787,-9.803430,-178.838348
5.198281,-16.830444,-1.014709,0.980352,0.058678,-0.166454,-9.893243,-179.036087
5.213881,-16.929626,-1.350403,1.865361,-0.083227,-0.137714,-9.720801,-179.188339
5.229505,-17.166138,-2.426147,2.834294,-0.057480,-0.145497,-9.747746,-179.144852
5.245126,-18.325806,-2.571106,2.635930,-0.047302,-0.109572,-9.902822,-179.366074
5.260742,-18.394470,-1.792908,1.628850,-0.058678,0.116757,-9.727986,179.312363
5.276350,-18.058777,-1.678467,0.942205,-0.186812,0.132325,-9.800436,179.226440
5.291969,-17.013550,-1.937866,1.956914,-0.295785,-0.035327,-9.935755,-179.796295
5.307580,-17.547607,-3.898621,2.788518,-0.258063,0.047900,-9.573507,179.713333
5.323201,-17.280579,-1.861572,1.735662,-0.266446,0.243094,-9.403461,178.519135
5.338806,-16.105652,-0.656128,0.438665,-0.279619,0.505349,-9.736369,177.028839
5.354401,-16.807556,0.228882,-0.103022,-0.354463,0.432301,-9.700443,177.448303
5.369998,-16.670227,0.617981,-0.980403,-0.282612,0.528102,-9.717808,176.889404
5.385612,-16.059875,1.045227,-1.216914,0.039518,0.438887,-9.924976,177.468002
5.401198,-13.778687,2.204895,-2.773311,-0.024549,0.720901,-9.829775,175.805511
5.416808,-12.893677,2.693176,-4.406001,0.086221,0.622106,-9.731579,176.342255
5.432412,-12.138367,1.907349,-2.948787,-0.147892,0.698148,-9.759721,175.908386
5.448013,-12.260437,1.220703,-1.712825,0.189805,0.643661,-9.671104,176.192291
5.463656,-13.214111,-0.114441,-0.621821,0.182021,0.587977,-9.698647,176.530701
5.479265,-13.900757,-0.328064,0.637029,0.099393,0.658032,-9.743554,176.136383
5.494871,-14.038086,-1.007080,0.934575,0.035925,0.735271,-9.792053,175.705795
5.510502,-13.809204,-1.487732,1.659368,-0.085023,1.402284,-9.878274,171.920471
5.526127,-14.152527,-1.678467,2.391789,-0.162861,1.128054,-9.720801,173.380692
5.541745,-12.695312,-1.960754,2.407048,-0.214354,1.017883,-9.770498,174.052429
5.557363,-11.833191,-1.976013,2.025578,-0.216749,0.926873,-9.714215,174.549683
5.572972,-12.260437,-1.564026,1.377080,-0.259261,1.772913,-10.024969,169.970947
5.588590,-12.771606,-0.366211,-0.507380,0.029339,0.462239,-9.601050,177.243637
5.604175,-13.214111,0.968933,-2.185847,-0.308359,0.939446,-9.729783,174.484985
5.619761,-13.473511,1.396179,-1.888301,-0.170645,1.046025,-9.778282,173.894043
5.635358,-13.755798,1.197815,-2.269771,-0.045505,0.978365,-9.787862,174.291840
5.650951,-14.778137,1.312256,-1.544978,-0.116158,0.947829,-9.717209,174.428925
5.666537,-15.296936,0.564575,-0.896479,0.036524,1.046624,-9.777084,173.889832
5.682129,-16.036987,0.091553,-0.820186,0.031135,1.110092,-9.741757,173.499084
5.697724,-17.402649,0.289917,-0.476863,0.019759,1.111289,-9.632785,173.419144
5.713295,-19.020081,-0.083923,-0.598933,0.139510,1.158591,-9.616019,173.129807
5.728885,-20.378113,-0.267029,-0.469233,0.027543,1.426234,-9.677093,171.615967
5.744477,-21.492004,-0.663757,1.369451,0.053888,1.478925,-9.645957,171.283249
5.760062,-21.186829,-1.670837,1.445745,0.028141,1.511257,-9.694456,171.139542
5.775654,-20.500183,-2.296448,2.254460,-0.149689,1.610651,-9.701641,170.573822
5.791246,-21.453857,-1.838684,2.277349,-0.307760,1.987267,-9.550157,168.245209
5.806830,-19.592285,-1.045227,1.430486,-0.151485,1.826801,-9.727387,169.363754
5.822435,-19.355774,-0.625610,0.431035,-0.285007,1.822011,-9.652543,169.310638
5.838051,-19.348145,0.068665,-0.415828,-0.290396,1.892065,-9.547761,168.791016
5.853655,-19.981384,0.671387,-1.735713,-0.172441,2.026186,-9.364542,167.791229
5.869278,-19.958496,1.335144,-1.514460,-0.123344,2.107018,-9.544168,167.550781
5.884874,-20.545959,1.480103,-2.124812,0.089813,2.128574,-9.584286,167.478409
5.900478,-20.050049,1.594543,-1.453425,0.088017,2.275867,-9.494473,166.520279
5.916081,-18.455505,0.854492,-0.881221,-0.008383,2.178869,-9.525607,167.115921
5.931687,-17.295837,-0.282288,-0.072505,0.101190,2.347718,-9.465732,166.070419
5.947294,-17.082214,-0.564575,1.132939,0.071252,2.230961,-9.478905,166.755875
5.962887,-16.189575,-1.289368,1.232122,0.051493,2.418970,-9.411245,165.585312
5.978505,-16.830444,-2.151489,1.659368,-0.115560,2.538721,-9.376517,164.850220
5.994127,-17.456055,-1.037598,1.621221,-0.115560,2.513573,-9.359154,164.966904
6.009742,-17.883301,-1.190186,0.507329,-0.037722,2.545307,-9.272933,164.651047
6.025360,-17.135620,-0.030518,-0.499751,-0.082029,2.759063,-9.320833,163.510696
6.040976,-17.486572,0.274658,-0.080134,-0.376617,2.589615,-10.045326,165.544296
6.056591,-15.373230,-0.190735,-0.560786,-0.034728,2.605781,-9.401665,164.508652
6.072206,-14.282227,-0.625610,-0.148799,-0.076641,2.920726,-9.415437,162.765778
6.087819,-13.725281,-0.694275,0.431035,0.055085,3.028502,-9.207069,161.792297
6.103435,-13.084412,-1.129150,0.965093,-0.054487,3.051255,-9.194496,161.641235
6.119050,-11.497498,-1.464844,1.735662,-0.007784,3.117118,-9.262753,161.400803
6.134647,-8.934021,-0.915527,1.720403,-0.201182,3.305127,-9.264550,160.366150
6.150268,-5.714417,-1.762390,0.629399,-0.146096,3.153642,-9.119053,160.923080
6.165884,-5.645752,-1.640320,0.270818,-0.286804,3.008743,-9.048400,161.607178
6.181491,-7.530212,-0.244141,0.781987,-0.138312,3.051255,-8.987327,161.247330
6.197094,-9.864807,-0.205994,-0.644709,-0.152084,2.963238,-9.094503,161.952972
6.212683,-10.437012,0.663757,-1.010920,-0.130529,3.090174,-9.207069,161.446671
6.228287,-9.658813,1.457214,-1.117732,-0.093406,3.136278,-9.234612,161.241379
6.243889,-7.942200,1.197815,-1.644160,-0.123344,3.120112,-9.363943,161.571671
6.259512,-6.477356,0.946045,-0.911738,-0.071252,3.031496,-9.406455,162.136993
6.275125,-5.821228,0.656128,-0.484492,-0.028740,2.942880,-9.364542,162.554260
6.290740,-5.416870,0.259399,-0.408198,0.049098,2.941084,-9.345382,162.530685
6.306355,-6.912231,-0.015259,-0.316646,-0.041314,3.046465,-9.219644,161.714798
6.321969,-7.148743,0.488281,-0.721003,0.017963,3.096760,-9.219644,161.433456
6.337578,-7.804871,0.267029,-0.888850,-0.038320,3.142864,-9.126837,160.998642
6.353189,-9.391785,0.106812,-0.354792,-0.044907,3.076403,-9.117855,161.355392
6.368786,-10.421753,-0.526428,2.315495,-0.026944,3.135081,-9.247187,161.271759
6.384367,-10.482788,-0.900269,0.812505,0.003593,3.199746,-9.299877,161.013535
6.399977,-10.147095,-1.487732,0.980352,0.017364,3.191364,-9.293290,161.047272
6.415577,-9.887695,-1.586914,1.171086,-0.061073,3.196154,-9.240002,160.919281
6.431157,-9.864807,-1.426697,0.881169,-0.072449,3.214715,-9.232218,160.801575
6.446749,-10.406494,-0.961304,-1.506831,-0.149689,3.285967,-9.108874,160.163422
6.462360,-11.016846,-0.839233,0.209783,-0.116158,3.326682,-9.073547,159.865280
6.477952,-12.382507,-1.037598,0.232671,-0.074246,3.239264,-9.011277,160.228119
6.493538,-14.465332,-1.251221,0.835393,-0.029339,3.343447,-9.176533,159.980911
6.509131,-15.983582,-1.609802,0.858281,-0.113165,3.309318,-9.038220,159.889954
6.524722,-17.059326,-0.923157,0.194524,-0.107177,3.525469,-9.242396,159.120880
6.540303,-17.410278,0.251770,-1.369502,-0.173639,3.477568,-9.266945,159.430603
6.555908,-15.945435,-0.129700,-0.217463,-0.077838,3.434458,-9.228026,159.585892
6.571515,-13.778687,-0.343323,-0.133540,-0.200583,3.609294,-9.121448,158.411636
6.587133,-15.808105,0.167847,0.156377,-0.152084,3.646417,-9.102886,158.170044
6.602745,-17.097473,-0.129700,-0.103022,-0.152682,3.644621,-8.927451,157.792328
6.618359,-19.309998,0.572205,-0.255610,-0.068857,3.774551,-8.898112,157.013489
6.633977,-17.913818,0.511169,-0.232722,0.016765,3.883524,-8.810095,156.211929
6.649573,-18.020630,0.030518,-0.179316,0.016166,3.987708,-8.872965,155.799789
6.665184,-18.119812,-0.480652,0.560735,0.045505,3.999683,-8.689746,155.284515
6.680790,-18.013000,-1.152039,0.575994,0.085023,4.062552,-8.751417,155.098480
6.696377,-18.722534,-1.770020,0.865911,-0.036524,4.093088,-8.771775,154.985291
6.711980,-18.951416,-2.075195,1.422856,0.007185,4.233197,-8.737646,154.150833
6.727597,-18.249512,-2.883911,1.956914,-0.055085,4.298461,-8.729862,153.785019
6.743207,-17.326355,-3.334045,2.109502,-0.176034,4.327800,-8.641247,153.396896
6.758791,-17.135620,-2.754211,1.804326,-0.174238,4.301455,-8.749621,153.820511
6.774437,-17.265320,-1.312256,0.804875,-0.241897,4.363127,-8.595142,153.086426
6.790070,-17.951965,-0.015259,0.484441,-0.240101,4.451743,-8.619092,152.683746
6.805668,-17.288208,0.099182,0.415776,-0.201780,4.567302,-8.406534,151.484589
6.821255,-16.731262,-0.030518,-0.156428,-0.320933,4.634962,-8.531075,151.484619
6.836863,-16.029358,1.007080,-0.598933,-0.279619,4.554130,-8.559216,151.983765
6.852454,-15.586853,1.884460,-0.965144,-0.175435,4.597839,-8.517902,151.640472
6.868045,-16.098022,2.700806,-2.018001,-0.143102,4.604425,-8.489761,151.526794
6.883628,-15.991211,2.456665,-1.583125,-0.061073,4.775669,-8.507724,150.693039
6.899215,-15.480042,2.250671,-1.712825,0.067061,4.835545,-8.365819,149.971573
6.914798,-14.572144,0.877380,-0.911738,0.222737,4.782255,-8.353844,150.210510
6.930374,-14.831543,0.503540,-0.759150,0.174836,4.784650,-8.380189,150.275894
6.945951,-15.220642,-0.228882,0.148748,0.160466,4.936135,-8.346060,149.398529
6.961541,-15.197754,-1.251221,0.675176,0.110770,4.944518,-8.316721,149.267365
6.977115,-14.175415,-2.517700,1.392339,0.147294,4.987030,-8.328696,149.087814
6.992718,-13.923645,-3.173828,1.888250,-0.049098,4.902006,-8.295765,149.420959
7.008335,-14.350891,-3.173828,1.758550,-0.182021,4.925956,-8.302351,149.318466
7.023929,-14.945984,-2.342224,1.255010,-0.231718,5.000801,-8.271215,148.842712
7.039541,-15.502930,-1.571655,0.865911,-0.307760,5.127138,-8.200562,147.985641
7.055138,-14.778137,-1.068115,0.514959,-0.444875,5.421127,-8.299357,146.847504
7.070748,-14.381409,-0.366211,0.171636,-0.188608,5.255271,-8.070633,146.929443
7.086349,-12.680054,0.175476,-0.202205,-0.188608,5.366041,-8.170026,146.703262
7.101950,-12.504578,0.679016,-0.499751,-0.103585,5.281018,-8.026325,146.656586
7.117552,-11.894226,1.228333,-0.652339,-0.093406,5.354665,-8.028121,146.297165
7.133160,-11.505127,1.182556,-0.743892,-0.086819,5.403164,-8.007165,145.988876
7.148741,-11.230469,0.587463,-0.766780,-0.038919,5.410349,-7.927530,145.687408
7.164337,-10.459900,0.350952,-0.598933,-0.141306,5.473817,-7.998184,145.612946
7.179927,-10.009766,0.129700,-0.324275,0.096998,5.367239,-7.879630,145.739120
7.195532,-10.459900,0.335693,-0.476863,-0.094005,5.491181,-7.965252,145.417938
7.211142,-10.078430,0.091553,-0.110652,0.004191,5.564229,-7.944894,144.994431
7.226740,-9.559631,-0.701904,0.316594,-0.070054,5.552853,-7.906574,144.919327
7.242322,-8.323669,-1.396179,0.720952,-0.118553,5.561834,-7.989202,145.155563
7.257908,-7.629395,-1.686096,0.820134,-0.065863,5.570816,-7.893402,144.787231
7.273492,-6.904602,-1.449585,0.843022,-0.097597,5.643265,-7.854483,144.303619
7.289077,-6.034851,-1.121521,0.827764,-0.160466,5.683382,-7.817359,143.982086
7.304657,-5.554199,-0.869751,0.614141,-0.179626,5.669011,-7.761675,143.856171
7.320236,-4.295349,-0.495911,0.293706,-0.123942,5.739664,-7.795805,143.637619
7.335821,-3.707886,-0.259399,0.156377,-0.146096,5.665419,-7.749701,143.831329
7.351408,-3.227234,-0.076294,-0.118281,-0.132924,5.694159,-7.762274,143.737411
7.366986,-3.082275,0.137329,-0.171687,-0.125140,5.712121,-7.723954,143.515839
7.382563,-3.067017,0.289917,-0.316646,-0.143102,5.683980,-7.732337,143.680679
7.398151,-2.464294,0.526428,-0.415828,-0.130529,5.691764,-7.781435,143.816238
7.413746,-2.342224,0.366211,-0.453975,-0.098795,5.667215,-7.767663,143.885864
7.429311,-1.861572,0.228882,-0.415828,-0.050295,5.664221,-7.834723,144.134430
7.444908,-1.716614,0.442505,-0.415828,-0.073048,5.640870,-7.865859,144.354431
7.460491,-1.388550,0.640869,-0.408198,-0.080233,5.645660,-7.886217,144.401520
7.476087,-0.915527,0.503540,-0.370051,-0.088017,5.655240,-7.888611,144.363770
7.491675,-0.480652,0.343323,-0.293757,-0.086221,5.609735,-7.891605,144.592941
7.507267,-0.205994,0.045776,-0.156428,-0.108973,5.607339,-7.888013,144.592178
7.522860,-0.465393,0.030518,-0.278499,-0.071851,5.580994,-7.850291,144.589905
7.538466,-0.953674,0.442505,-0.408198,-0.071252,5.595963,-7.852087,144.523590
7.554056,-1.502991,0.625610,-0.476863,-0.061672,5.583389,-7.877235,144.670959
7.569663,-1.922607,0.305176,-0.362422,-0.037123,5.611531,-7.861668,144.481369
7.585277,-2.220154,-0.106812,-0.164058,-0.047900,5.567223,-7.914957,144.878220
7.600893,-2.815247,-0.549316,0.049565,-0.022753,5.566624,-7.916753,144.887238
7.616499,-3.105164,-0.541687,0.194524,-0.039518,5.582790,-7.959863,144.955429
7.632103,-3.372192,-0.503540,0.095342,-0.071252,5.576803,-7.949086,144.947830
7.647709,-3.692627,-0.732422,0.247930,-0.135917,5.586383,-7.952079,144.911728
7.663313,-4.234314,-0.686646,0.164006,-0.150886,5.595365,-7.954474,144.876556
7.678912,-4.814148,-0.808716,0.133489,-0.117356,5.607938,-7.884420,144.576965
7.694513,-5.195618,-0.404358,0.186895,-0.086819,5.640271,-7.863464,144.349060
7.710115,-5.920410,-0.228882,-0.110652,-0.076641,5.690567,-7.860470,144.097443
7.725737,-6.172180,-0.183105,-0.011470,-0.054487,5.742658,-7.802989,143.648560
7.741347,-6.134033,-0.572205,0.217412,-0.061073,5.759423,-7.761675,143.423340
7.756964,-6.111145,-1.159668,0.484441,-0.019759,5.773195,-7.789218,143.454987
7.772576,-6.629944,-1.609802,0.881169,-0.051493,5.745652,-7.717966,143.334106
7.788196,-7.179260,-1.731873,0.720952,-0.043709,5.779781,-7.719164,143.175690
7.803805,-7.751465,-1.640320,0.766729,-0.092208,5.822891,-7.737725,143.037338
7.819426,-7.843018,-1.167297,0.659917,-0.207169,6.059400,-7.118014,139.593033
7.835017,-7.980347,-1.251221,2.246831,-0.359852,5.788762,-7.636536,142.836594
7.850609,-8.117676,-1.091003,0.385259,-0.270637,5.958210,-7.677850,142.187607
7.866208,-8.911133,-1.052856,0.255559,-0.160466,5.883964,-7.652103,142.442093
7.881816,-8.491516,-0.610352,0.125859,-0.123344,5.930068,-7.655696,142.238800
7.897421,-8.277893,-0.717163,0.110601,-0.117356,5.959407,-7.573667,141.802246
7.913004,-7.598877,-0.900269,0.507329,-0.167053,6.038443,-7.544926,141.328613
7.928606,-7.324219,-1.350403,0.881169,-0.132924,6.034252,-7.498223,141.174362
7.944204,-6.919861,-1.358032,0.820134,-0.065264,6.094726,-7.470082,140.789520
7.959801,-6.408691,-1.068115,0.598882,-0.104183,6.080356,-7.443737,140.756622
7.975410,-6.355286,-0.747681,0.492070,-0.110171,6.156398,-7.418589,140.312042
7.991002,-6.057739,-0.175476,0.072454,-0.124541,6.183940,-7.374880,140.019699
8.006610,-5.706787,-0.152588,-0.049617,-0.113165,6.177953,-7.383262,140.079056
8.022224,-5.401611,0.000000,-0.087764,-0.079634,6.196514,-7.434755,140.190414
8.037807,-5.264282,-0.068665,-0.049617,-0.028141,6.165978,-7.388651,140.154327
8.053388,-4.882812,-0.236511,0.034307,-0.060474,6.227051,-7.393441,139.894577
8.068968,-4.035950,-0.396729,0.209783,-0.101190,6.257587,-7.385058,139.724365
8.084548,-3.646851,-0.648499,0.240300,-0.092807,6.248007,-7.360510,139.673569
8.100117,-2.899170,-0.755310,0.255559,-0.126936,6.240822,-7.359911,139.703781
8.115694,-2.677917,-0.473022,0.148748,-0.128134,6.206094,-7.371886,139.907333
8.131280,-2.510071,-0.045776,-0.103022,-0.149689,6.207891,-7.385058,139.949539
8.146855,-2.311707,0.122070,-0.225093,-0.158670,6.222261,-7.386256,139.888855
8.162488,-2.174377,0.328064,-0.362422,-0.168849,6.237828,-7.344942,139.659805
8.178088,-1.884460,0.175476,-0.316646,-0.150886,6.237828,-7.356917,139.705856
8.193666,-1.358032,0.236511,-0.186946,-0.102986,6.211483,-7.366497,139.862183
8.209288,-1.319885,0.343323,-0.247981,-0.068258,6.230643,-7.378472,139.821075
8.224891,-1.091003,0.297546,-0.293757,-0.047900,6.220465,-7.368293,139.828262
8.240487,-1.182556,0.259399,-0.408198,-0.091011,6.196514,-7.361108,139.909637
8.256087,-1.647949,0.350952,-0.415828,-0.131127,6.184539,-7.395237,140.094711
8.271686,-2.136230,0.587463,-0.400569,-0.126936,6.186336,-7.384460,140.045395
8.287298,-2.578735,0.526428,-0.392939,-0.138911,6.190527,-7.429367,140.197220
8.302909,-2.815247,0.541687,-0.156428,0.032932,5.840255,-7.392842,141.691696
8.318518,-0.488281,0.488281,-0.064875,-0.035327,6.161787,-7.683239,141.271164
8.334129,-1.594543,0.350952,-0.301387,-0.040117,6.122269,-7.555704,140.982697
8.349746,-1.419067,0.152588,-0.164058,-0.043709,6.179151,-7.474872,140.420944
8.365348,-1.922607,0.015259,-0.072505,-0.029938,6.133046,-7.419786,140.423553
8.380948,-2.258301,-0.282288,0.102971,-0.035925,6.216273,-7.436552,140.107483
8.396547,-2.662659,-0.389099,0.041936,-0.033530,6.192922,-7.362306,139.930588
8.412151,-3.082275,-0.640869,0.049565,-0.099393,6.202502,-7.343744,139.815674
8.427736,-3.707886,-0.656128,0.301335,-0.137115,6.218668,-7.298239,139.566422
8.443341,-4.493713,-0.816345,0.324224,-0.137115,6.275550,-7.335961,139.454666
8.458950,-4.997253,-0.900269,0.476812,-0.103585,6.299500,-7.331769,139.330643
8.474557,-4.844666,-0.907898,0.408147,-0.073048,6.295907,-7.357516,139.446030
8.490161,-4.486084,-0.701904,0.217412,-0.074844,6.365363,-7.338356,139.061310
8.505772,-4.089355,-0.907898,0.301335,-0.088616,6.355185,-7.310813,139.000031
8.521373,-3.669739,-0.968933,0.385259,-0.071851,6.369555,-7.277283,138.805466
8.536979,-3.128052,-1.022339,0.423406,-0.116158,6.405480,-7.261117,138.582489
8.552569,-2.784729,-1.144409,0.385259,-0.064666,6.394702,-7.238962,138.543503
8.568187,-2.517700,-0.938416,0.453923,-0.117356,6.414461,-7.183278,138.236069
8.583798,-2.326965,-1.258850,0.408147,-0.095202,6.440806,-7.118613,137.861710
8.599412,-2.769470,-1.159668,0.415776,-0.295186,6.443800,-7.083885,137.709030
8.615014,-2.716064,-0.846863,0.545476,-0.189805,6.492898,-7.059935,137.395798
8.630614,-2.182007,-0.816345,0.446294,-0.296982,6.515052,-7.064126,137.315491
8.646214,-1.434326,-0.808716,0.080083,-0.304167,6.518644,-7.058138,137.275543
8.661823,-1.190186,-0.450134,-0.232722,-0.184417,6.486910,-7.058138,137.414886
8.677417,-0.892639,0.190735,-0.194575,-0.185614,6.520441,-7.056342,137.260406
8.693032,-0.579834,0.572205,-0.354792,-0.108973,6.530620,-7.107236,137.421051
8.708640,0.587463,0.602722,-0.408198,-0.123942,6.528823,-7.163519,137.653992
8.724197,2.105713,0.427246,-0.446345,-0.093406,6.482121,-7.173100,137.896805
8.739677,2.967834,0.511169,-0.621821,-0.095801,6.391109,-7.198247,138.399078
8.755152,2.845764,0.801086,-0.537898,-0.075443,6.326444,-7.205432,138.716522
8.770706,2.197266,0.953674,-0.606562,-0.099393,6.321654,-7.233573,138.848740
8.786298,1.937866,0.808716,-0.499751,-0.079634,6.363567,-7.250339,138.726822
8.801891,2.113342,0.534058,-0.278499,-0.075443,6.334826,-7.258721,138.888168
8.817488,1.724243,0.297546,-0.316646,-0.096998,6.295907,-7.328775,139.335220
8.833071,0.831604,0.297546,-0.247981,-0.056283,6.229446,-7.326381,139.626282
8.848671,-0.175476,0.038147,-0.110652,-0.039518,6.237828,-7.347337,139.669022
8.864248,-0.892639,-0.068665,0.102971,-0.008383,6.288124,-7.378472,139.561508
8.879824,-1.045227,-0.495911,0.019048,-0.016765,6.326444,-7.367695,139.348190
8.895409,-0.610352,-0.358582,0.003789,-0.011975,6.351592,-7.385058,139.302505
8.910981,-0.366211,-0.503540,0.209783,-0.083227,6.310876,-7.356917,139.376495
8.926577,-0.473022,-0.808716,0.316594,-0.110770,6.286327,-7.338954,139.417633
8.942184,-1.159668,-1.159668,0.583623,-0.106578,6.329438,-7.264709,138.935715
8.957771,-1.594543,-1.136780,0.453923,-0.088017,6.316864,-7.272493,139.022537
8.973363,-2.075195,-0.793457,0.148748,-0.123344,6.371950,-7.222197,138.578903
8.988970,-2.487183,-0.617981,0.072454,-0.118553,6.337222,-7.198846,138.642181
9.004588,-3.303528,-0.686646,0.125859,-0.125140,6.394104,-7.175494,138.295670
9.020204,-3.334045,-0.946045,0.415776,-0.108973,6.427035,-7.205432,138.267975
9.035817,-3.234863,-1.075745,0.347112,-0.103585,6.446794,-7.212018,138.206604
9.051429,-2.822876,-0.915527,0.316594,-0.077239,6.292914,-7.223395,138.938110
9.067047,-2.639771,-0.694275,0.225042,-0.104782,6.286926,-7.216210,138.936874
9.082656,-2.487183,-0.434875,0.225042,-0.122745,6.306685,-7.238364,138.934814
9.098280,-2.365112,-0.549316,0.095342,-0.134720,6.310876,-7.165915,138.630280
9.113876,-2.418518,-0.648499,0.125859,-0.133522,6.461164,-7.144359,137.874664
9.129495,-2.479553,-0.648499,0.125859,-0.095801,6.476732,-7.124600,137.727097
9.145089,-2.365112,-0.549316,0.232671,-0.092208,6.516848,-7.132983,137.584503
9.160692,-2.105713,-0.556946,0.286077,-0.076042,6.524632,-7.110829,137.461670
9.176305,-1.510620,-0.640869,0.476812,-0.082628,6.557563,-7.103644,137.289062
9.191916,-1.144409,-0.930786,0.354741,-0.094005,6.534811,-7.053349,137.185394
9.207540,-0.869751,-1.060486,0.324224,-0.101788,6.536008,-7.022213,137.053787
9.223167,-0.778198,-0.991821,0.446294,-0.115560,6.561755,-7.004251,136.868210
9.238766,-0.625610,-0.892639,0.293706,-0.110171,6.566545,-7.022812,136.923004
9.254368,-0.305176,-0.617981,0.041936,-0.128134,6.559958,-7.017423,136.929749
9.269968,-0.068665,-0.343323,-0.186946,-0.159269,6.531218,-7.056941,137.215652
9.285639,-0.175476,-0.228882,-0.103022,-0.170645,6.519243,-7.065323,137.301971
9.301220,-0.053406,-0.152588,0.003789,-0.162263,6.546786,-7.091669,137.287872
9.316805,0.457764,-0.328064,0.019048,-0.139510,6.539601,-7.134779,137.492233
9.332419,1.091003,-0.137329,-0.133540,-0.126936,6.512657,-7.151544,137.677002
9.348050,1.159668,0.152588,-0.301387,-0.104782,6.481522,-7.163519,137.861343
9.363671,0.869751,0.579834,-0.301387,-0.128134,6.465954,-7.189266,138.032104
9.379281,0.694275,0.488281,-0.309016,-0.124541,6.465355,-7.173698,137.972977
9.394888,0.602722,0.289917,-0.263240,-0.123344,6.480324,-7.173100,137.904709
9.410487,0.617981,0.213623,-0.156428,-0.068258,6.461763,-7.181482,138.019714
9.426083,0.595093,-0.068665,-0.019099,-0.056882,6.436615,-7.178488,138.118912
9.441689,0.015259,-0.305176,0.064824,-0.035327,6.430029,-7.183877,138.169434
9.457317,-0.389099,-0.488281,0.263188,-0.009580,6.439609,-7.188068,138.143646
9.472915,-0.320435,-0.602722,0.087712,-0.026345,6.461164,-7.185074,138.036591
9.488515,-0.305176,-0.755310,0.118230,-0.026345,6.455775,-7.198247,138.112549
9.504145,-0.701904,-0.846863,0.217412,-0.104782,6.437812,-7.128791,137.915695
9.519750,-1.281738,-0.968933,0.202153,-0.137115,6.451584,-7.152143,137.947998
9.535341,-1.930237,-0.785828,0.286077,-0.174836,6.477330,-7.164118,137.882156
9.550924,-2.471924,-0.427246,0.186895,-0.284409,7.670050,-7.234771,133.327225
9.566506,-2.822876,-0.625610,0.133489,-0.177830,6.629414,-7.157532,137.193680
9.582086,-1.792908,-0.396729,0.003789,-0.091011,6.546786,-7.254530,137.935623
9.597666,-1.991272,-0.404358,0.125859,-0.146695,6.377937,-7.152742,138.277344
9.613230,-2.685547,-0.289917,0.087712,-0.091011,6.503675,-7.111428,137.555878
9.628817,-2.670288,-0.152588,0.141118,-0.107776,6.509064,-7.094663,137.464874
9.644393,-2.517700,-0.160217,0.102971,-0.079036,6.562952,-7.088675,137.205353
9.659975,-2.166748,-0.175476,-0.026729,-0.054487,6.534811,-7.055743,137.195099
9.675619,-2.159119,-0.205994,0.057195,-0.085023,6.556366,-7.041373,137.042770
9.691221,-2.975464,-0.312805,0.095342,-0.099992,6.531218,-7.028800,137.101517
9.706828,-3.471375,-0.518799,0.339482,-0.081431,6.593489,-7.021016,136.798630
9.722432,-3.334045,-0.709534,0.324224,-0.094603,6.637796,-7.018022,136.594910
9.738033,-2.708435,-0.831604,0.202153,-0.075443,6.616241,-7.023411,136.709885
9.753624,-2.395630,-0.686646,0.125859,-0.122146,6.635402,-7.008442,136.566147
9.769215,-2.525330,-0.366211,0.118230,-0.132924,6.606062,-6.998862,136.653778
9.784806,-2.220154,-0.251770,-0.011470,-0.144300,6.706055,-7.210821,137.077209
9.800409,-0.152588,-0.122070,0.102971,-0.156874,6.647377,-6.955153,136.296173
9.815999,-1.342773,-0.274658,0.095342,-0.161065,6.726412,-6.987485,136.090622
9.831596,-0.946045,-0.144958,-0.003840,-0.139510,6.666537,-6.959943,136.233505
9.847195,-1.007080,0.236511,-0.125911,-0.083227,6.637198,-6.949764,136.317841
9.862795,-0.907898,0.312805,-0.324275,-0.059277,6.674920,-6.973714,136.254120
9.878385,-0.373840,0.282288,-0.240352,-0.071851,6.679709,-6.980899,136.263046
9.893977,-0.244141,-0.175476,-0.125911,-0.073647,6.683901,-6.971319,136.205795
9.909593,0.076294,-0.564575,0.148748,-0.036524,6.639593,-6.967128,136.378937
9.925200,0.251770,-0.396729,0.148748,-0.034728,6.657556,-6.975510,136.336029
9.940799,0.511169,-0.427246,0.095342,-0.071252,6.619235,-6.983893,136.535568
9.956407,0.381470,-0.343323,0.041936,-0.107776,6.631809,-6.968325,136.417419
9.971998,0.297546,-0.350952,0.110601,-0.149689,6.647975,-6.798279,135.640427
9.987593,0.404358,-0.770569,0.209783,-0.147892,6.688092,-7.071311,136.595352
10.003152,0.816345,-0.877380,0.301335,-0.104782,6.697073,-6.965930,136.127304
10.018745,1.525879,-0.656128,0.232671,-0.086221,6.692283,-6.982695,136.216599
10.034348,2.304077,-0.267029,0.095342,-0.114961,6.686296,-6.792890,135.453094
10.049938,2.822876,-0.480652,0.133489,-0.097597,6.665339,-6.944375,136.174545
10.065524,3.150940,-0.320435,0.019048,-0.135319,6.656358,-6.928807,136.148911
10.081126,3.379822,-0.473022,-0.003840,-0.287402,6.667734,-6.912641,136.033157
10.096715,3.608704,0.076294,0.034307,-0.137115,6.686296,-6.908450,135.936203
10.112307,4.142761,0.213623,-0.011470,-0.149689,6.711443,-6.947968,135.992035
10.127895,5.058289,0.335693,-0.156428,-0.183219,6.704857,-6.970720,136.113724
10.143503,6.584167,0.724792,-0.103022,-0.301772,6.673722,-6.975510,136.266617
10.159072,7.675171,1.022339,-0.286128,-0.160466,6.618637,-6.977306,136.511154
10.174652,8.247375,1.075745,-0.347163,-0.122146,6.629414,-6.989282,136.513672
10.190229,8.842468,0.717163,-0.316646,-0.096400,6.609056,-6.994071,136.621246
10.205816,9.483337,0.755310,-0.408198,0.129331,6.589297,-6.985689,136.672577
10.221436,9.696960,0.648499,-0.591304,-0.150287,6.527027,-6.970121,136.880264
10.237058,9.346008,0.679016,-0.568416,-0.013173,6.512657,-6.967726,136.933456
10.252625,8.621216,0.320435,-0.354792,-0.148491,6.485114,-7.022213,137.277069
10.268200,8.308411,-0.099182,0.003789,-0.031135,6.443800,-7.067120,137.641434
10.283783,8.132935,-0.846863,0.125859,-0.064067,6.431226,-7.163519,138.083313
10.299364,8.445740,-0.877380,0.164006,-0.126337,6.403085,-7.259320,138.586090
10.314949,9.269714,-0.656128,0.171636,-0.205972,6.406677,-7.319794,138.805832
10.330535,10.231018,-0.213623,0.110601,-0.206570,6.425239,-7.400027,139.033112
10.346126,11.932373,1.922607,-0.194575,-0.156874,6.290519,-7.393441,139.608063
10.361708,12.275696,0.030518,-0.362422,-0.179626,6.239026,-7.454514,140.072479
10.377271,12.077332,0.846863,-0.423457,-0.053289,6.207891,-7.402422,140.015808
10.392859,11.489868,1.441956,-0.766780,-0.043709,6.192323,-7.338356,139.841339
10.408457,11.978149,1.510620,-0.743892,-0.042512,6.292914,-7.307819,139.267578
10.424054,12.313843,0.968933,-0.331904,-0.015568,6.261778,-7.279678,139.298782
10.439629,12.741089,-0.022888,-0.209834,-0.047302,6.189928,-7.241357,139.476105
10.455222,12.046814,-1.182556,0.423406,-0.002994,6.149811,-7.264110,139.748672
10.470825,11.276245,-1.228333,0.759099,0.016765,6.180348,-7.313807,139.801361
10.486450,11.108398,-0.907898,0.301335,-0.032333,6.209088,-7.394040,139.978409
10.502020,12.855530,-0.114441,-0.339534,-0.122745,6.233038,-7.468884,140.153854
10.517596,14.846802,0.358582,-0.515010,-0.142504,6.169570,-7.423379,140.270035
10.533207,16.212463,-0.205994,-0.141169,-0.171843,6.187533,-7.503612,140.490768
10.548792,16.975403,0.259399,0.194524,-0.114362,6.068979,-7.451520,140.838501
10.564395,18.356323,-0.579834,0.408147,-0.170046,6.066585,-7.506606,141.056030
10.580001,19.851685,-0.709534,-0.385310,-0.238903,6.026468,-7.502415,141.226120
10.595591,20.172119,0.511169,-0.293757,-0.195793,5.933661,-7.458107,141.494278
10.611205,20.683289,2.113342,-1.186396,-0.192200,5.890551,-7.500618,141.855972
10.626820,19.897461,2.883911,-1.606013,-0.220342,5.754633,-7.526964,142.600800
10.642434,19.859314,2.883911,-1.567866,-0.075443,5.820496,-7.817359,143.330093
10.658053,19.111633,2.265930,-2.300288,-0.019759,5.604944,-7.688028,143.906143
10.673663,20.706177,2.006531,-2.010371,-0.014370,5.738467,-7.916154,144.061417
10.689280,21.446228,2.693176,-1.148250,-0.010179,5.534890,-7.813767,144.688110
10.704877,25.062561,2.540588,-1.567866,0.170645,5.563631,-8.478385,146.726578
10.720504,26.763916,2.639771,-2.285029,0.197589,5.223537,-8.163440,147.386063
10.736115,27.091980,2.685547,-1.964595,0.146096,5.227729,-8.181402,147.422348
10.751709,27.259827,2.128601,-1.041438,0.041314,5.220544,-8.293968,147.812103
10.767295,28.701782,1.113892,-0.843074,0.157473,5.236112,-8.198168,147.433929
10.782912,30.792236,-0.053406,-1.598384,0.370031,4.756509,-8.199964,149.883499
10.798506,26.260376,-1.281738,-3.299739,-0.068258,4.181105,-8.575982,154.009079
10.814116,16.471863,0.610352,-0.362422,-0.187410,3.968547,-8.364023,154.616669
10.829733,6.835938,-0.404358,0.530217,-0.164658,4.503834,-8.591550,152.335724
10.845347,4.829407,-1.686096,-0.301387,-0.308359,4.548741,-8.775368,152.599884
10.860951,4.180908,-1.731873,-0.080134,-0.411943,4.584067,-9.043610,153.120239
10.876554,2.456665,-0.732422,0.415776,-0.316143,4.263733,-9.154978,155.027267
10.892172,0.244141,0.694275,0.522588,-0.260458,3.999683,-9.178928,156.455017
10.907757,-1.541138,0.602722,0.270818,-0.173639,4.293073,-9.122046,154.797104
10.923368,-5.989075,1.548767,-0.438716,-0.116158,4.224814,-8.849613,154.480133
10.938978,-9.384155,1.777649,-1.033809,0.007784,4.498446,-8.681962,152.609650
10.954598,-9.284973,1.953125,-1.750972,-0.001198,4.776866,-8.736448,151.331284
10.970196,-10.665894,1.914978,-1.003291,0.122146,4.703219,-8.447848,150.893753
10.985801,-10.932922,0.961304,-0.415828,0.217947,4.858896,-8.471200,150.162369
11.001425,-11.711121,-0.717163,0.385259,0.203577,4.764293,-8.382585,150.388000
11.017046,-14.175415,-2.555847,1.415227,0.186812,4.815187,-8.260438,149.761169
11.032661,-16.113281,-3.677368,4.177068,0.169448,5.029541,-8.124521,148.240128
11.048251,-18.302917,-4.760742,2.788518,0.137714,5.166656,-8.085602,147.421646
11.063856,-18.264771,-5.287170,3.169988,0.023950,5.255271,-8.147872,147.178513
11.079452,-18.188477,-4.821777,2.506230,-0.001198,5.324129,-8.086201,146.638229
11.095061,-17.555237,-4.409790,2.216313,-0.154479,5.386998,-8.101170,146.377472
11.110696,-16.410828,-3.883362,4.161809,-0.244891,5.392985,-8.103564,146.355927
11.126324,-15.556335,-3.479004,1.972173,-0.319136,5.476811,-8.037702,145.729874
11.141921,-14.160156,-2.510071,1.171086,-0.291594,5.748646,-7.943697,144.107727
11.157510,-12.878418,-1.708984,0.446294,-0.328716,5.698949,-7.723355,143.576935
11.173138,-12.199402,-1.182556,0.911687,-0.329914,5.753436,-7.706590,143.256439
11.188749,-11.138916,-1.174927,0.759099,-0.112566,5.780380,-7.626956,142.841949
11.204362,-10.688782,-0.984192,0.453923,-0.062271,5.790558,-7.540136,142.477005
11.219969,-9.757996,-0.267029,0.362371,-0.031734,5.871989,-7.583845,142.250244
11.235569,-9.262085,-0.122070,0.186895,-0.009580,5.917494,-7.491637,141.695496
11.251141,-7.827759,0.007629,-0.324275,-0.052690,5.997129,-7.561092,141.580078
11.266727,-6.065369,-0.106812,-0.133540,-0.065863,5.985753,-7.565284,141.648499
11.282322,-4.585266,-0.312805,-0.057246,-0.110171,5.941445,-7.594623,141.963135
11.297934,-2.929688,-0.556946,0.034307,-0.147294,5.905519,-7.625758,142.245178
11.313522,-1.525879,-0.251770,0.194524,-0.148491,5.880970,-7.691621,142.598679
11.329110,1.762390,0.022888,-0.263240,-0.147294,5.878575,-7.692819,142.614243
11.344698,0.900269,0.511169,-0.705745,-0.198787,5.802534,-7.671263,142.896194
11.360288,1.647949,1.235962,-0.782039,-0.242496,5.793552,-7.667671,142.925964
11.375881,3.837585,1.510620,-0.957515,-0.186812,5.760621,-7.692819,143.173004
11.391473,2.090454,1.487732,-0.873591,-0.162861,5.767806,-7.853884,143.706848
11.407044,2.700806,1.548767,-0.942256,-0.098795,5.763615,-7.767064,143.422424
11.422622,3.456116,1.823425,-0.873591,0.010179,5.731282,-7.781435,143.627136
11.438263,3.746033,1.678467,-0.995662,0.033530,5.693560,-7.836520,144.000031
11.453812,5.844116,1.327515,-0.835444,0.005988,5.760022,-7.849692,143.729172
11.469431,4.882812,0.877380,-0.438716,0.064666,5.688770,-7.834125,144.014618
11.485039,5.393982,-0.053406,-0.202205,0.089813,5.768404,-7.753293,143.350967
11.500646,6.462097,-1.075745,0.202153,-0.021555,5.681585,-7.779638,143.858795
11.516221,6.568909,-1.075745,-0.026729,-0.064666,5.648654,-7.753293,143.924835
11.531828,6.256104,-0.900269,0.499700,-0.056882,5.697153,-7.842507,144.003647
11.547412,5.897522,-1.167297,0.667546,-0.107776,5.641469,-7.829934,144.227249
11.563011,5.966187,-1.350403,0.377629,-0.120948,5.606142,-8.017344,145.036758
11.578647,6.095886,-1.106262,0.202153,-0.165256,5.593568,-7.911364,144.738571
11.594238,6.622314,-0.602722,0.385259,-0.167053,5.561834,-7.934117,144.969452
11.609836,7.202148,-0.236511,-0.049617,-0.193398,5.513934,-7.969443,145.321243
11.625422,7.362366,0.305176,-0.392939,-0.203577,5.469027,-7.980221,145.576279
11.641033,6.912231,1.007080,-0.453975,-0.177231,5.433102,-8.023332,145.895599
11.656628,6.820679,1.403809,-0.774409,-0.180225,5.425917,-8.017344,145.910934
11.672240,6.805420,1.678467,-0.949885,-0.140707,5.431904,-8.022134,145.897491
11.687861,6.767273,1.434326,-0.827815,-0.063468,5.383405,-8.033510,146.173218
