Timestamp,Gyro_X_dps,Gyro_Y_dps,Gyro_Z_dps,Accel_X_mps2,Accel_Y_mps2,Accel_Z_mps2,Tilt_Angle_Deg
0.005570,1.022339,-0.297546,0.049565,-0.290396,2.446512,9.386065,14.609291
0.021266,0.846863,-0.297546,0.087712,-0.270637,2.443519,9.430972,14.525642
0.036861,0.617981,-0.434875,0.041936,-0.290995,2.465672,9.442348,14.634801
0.052456,0.617981,-0.289917,0.202153,-0.250878,2.478845,9.452527,14.694447
0.068033,0.534058,-0.259399,0.278447,-0.249681,2.474055,9.465101,14.648633
0.083617,0.381470,-0.328064,0.102971,-0.267643,2.481839,9.439355,14.731064
0.099224,0.350952,-0.404358,0.080083,-0.255668,2.460284,9.436361,14.613053
0.114831,0.381470,-0.343323,0.064824,-0.289797,2.475253,9.422589,14.718674
0.130403,0.129700,-0.305176,0.087712,-0.264650,2.458488,9.433368,14.607275
0.145992,-0.228882,-0.335693,-0.049617,-0.240699,2.490222,9.435163,14.784922
0.161591,-0.350952,-0.221252,-0.110652,-0.253273,2.462080,9.429176,14.633929
0.177188,-0.473022,-0.137329,-0.057246,-0.281415,2.462080,9.460910,14.586942
0.192766,-0.488281,-0.167847,-0.125911,-0.270637,2.442920,9.450731,14.493151
0.208366,-0.335693,-0.152588,-0.133540,-0.295186,2.429747,9.451330,14.417391
0.223941,-0.366211,-0.335693,-0.057246,-0.275427,2.427951,9.450731,14.408051
0.239533,-0.083923,-0.137329,-0.064875,-0.259261,2.405797,9.481268,14.237861
0.255120,-0.213623,-0.259399,-0.118281,-0.282612,2.393822,9.435762,14.235416
0.270710,-0.015259,-0.320435,-0.141169,-0.253273,2.406995,9.435762,14.310540
0.286297,-0.114441,-0.213623,-0.041987,-0.295785,2.412982,9.424985,14.360397
0.301885,0.007629,-0.305176,0.087712,-0.298180,2.436932,9.458515,14.447717
0.317484,0.106812,-0.366211,0.148748,-0.276625,2.408192,9.489052,14.240244
0.333075,0.129700,-0.297546,0.049565,-0.276625,2.420167,9.480669,14.320285
0.348664,0.419617,-0.205994,-0.041987,-0.242496,2.404001,9.492045,14.212163
0.364268,0.419617,-0.289917,-0.041987,-0.254471,2.401606,9.456120,14.250327
0.379872,0.625610,-0.350952,-0.118281,-0.283810,2.416575,9.451929,14.341591
0.395474,0.831604,-0.389099,0.064824,-0.271835,2.390229,9.461509,14.177799
0.411084,1.098633,-0.404358,0.133489,-0.284409,2.423161,9.450731,14.380806
0.426681,1.159668,-0.251770,0.255559,-0.281415,2.430346,9.435163,14.444472
0.442261,0.961304,-0.297546,0.286077,-0.268242,2.300416,9.421991,13.720561
0.457853,0.694275,-0.450134,0.362371,-0.283810,2.438729,9.427979,14.502776
0.473442,0.419617,-0.358582,0.385259,-0.266446,2.446512,9.441750,14.526788
0.489035,0.350952,-0.267029,0.225042,-0.238304,2.305206,9.471687,13.678630
0.504617,0.434875,-0.259399,0.102971,-0.251477,2.472259,9.486057,14.607500
0.520206,0.404358,-0.213623,-0.041987,-0.237706,2.500400,9.454923,14.813040
0.535800,0.343323,-0.297546,-0.156428,-0.227527,2.485431,9.422589,14.776556
0.551389,0.007629,-0.167847,-0.247981,-0.283810,2.471061,9.424386,14.692150
0.566974,-0.282288,-0.320435,-0.110652,-0.262853,2.302212,9.457916,13.680676
0.582570,-0.480652,-0.213623,-0.186946,-0.274828,2.435735,9.477077,14.413810
0.598152,-0.381470,-0.099182,-0.209834,-0.298180,2.439327,9.488453,14.417599
0.613728,-0.114441,-0.205994,-0.171687,-0.276625,2.436932,9.468694,14.432836
0.629313,-0.251770,-0.152588,-0.164058,-0.273032,2.430945,9.439954,14.440859
0.644905,-0.312805,-0.160217,-0.164058,-0.249082,2.440525,9.422589,14.520958
0.660495,-0.564575,-0.312805,-0.080134,-0.262255,2.401007,9.435163,14.277270
0.676074,-0.450134,-0.282288,-0.049617,-0.253872,2.368076,9.457916,14.056747
0.691681,-0.099182,-0.091553,-0.087764,-0.283810,2.375261,9.490249,14.051576
0.707268,0.213623,-0.236511,-0.049617,-0.317939,2.419569,9.486656,14.308225
0.722858,0.450134,-0.381470,-0.049617,-0.312550,2.406995,9.459713,14.275792
0.738451,0.595093,-0.328064,0.125859,-0.272433,2.396217,9.472286,14.196362
0.754035,0.679016,-0.473022,0.240300,-0.239502,2.386637,9.465101,14.152190
0.769623,0.938416,-0.450134,0.194524,-0.234712,2.355502,9.446540,14.001226
0.785223,1.152039,-0.167847,0.102971,-0.252675,2.345323,9.434565,13.960094
0.800830,1.228333,-0.335693,0.118230,-0.278421,2.392625,9.431571,14.234653
0.816445,1.091003,-0.282288,0.225042,-0.288600,2.401007,9.464502,14.234813
0.832068,1.579285,-0.305176,0.179265,-0.237706,2.431544,9.523779,14.322383
0.847637,2.189636,-0.137329,-0.011470,-0.216151,2.469265,9.558507,14.484646
0.863209,2.799988,-0.061035,-0.194575,-0.252675,2.446512,9.487854,14.459162
0.878804,3.303528,0.007629,-0.370051,-0.314346,2.476450,9.427979,14.717434
0.894388,2.876282,-0.160217,-0.057246,-0.323328,2.508783,9.342357,15.031500
0.909973,1.914978,-0.236511,0.202153,-0.295186,2.486629,9.314215,14.947717
0.925533,0.869751,-0.419617,0.301335,-0.243094,2.469864,9.397442,14.725616
0.941123,0.541687,-0.457764,0.316594,-0.239502,2.521955,9.590241,14.733548
0.956699,0.640869,-0.587463,0.293706,-0.290995,2.519561,9.493841,14.863049
0.972288,1.106262,-0.167847,0.133489,-0.287402,2.535727,9.321400,15.218080
0.987872,1.091003,-0.358582,0.057195,-0.261057,2.521955,9.392652,15.029602
1.003457,0.793457,-0.236511,-0.003840,-0.250878,2.518363,9.341758,15.087212
1.019054,-0.030518,-0.465393,-0.156428,-0.250878,2.502795,9.368103,14.957879
1.034670,-0.602722,-0.396729,0.049565,-0.251477,2.513573,9.429176,14.926458
1.050286,-0.701904,-0.320435,0.156377,-0.252076,2.491419,9.465101,14.746976
1.065893,-0.221252,-0.213623,0.064824,-0.231119,2.472858,9.495039,14.597656
1.081499,0.000000,0.022888,-0.202205,-0.213157,2.477648,9.488453,14.634437
1.097107,0.274658,0.022888,-0.370051,-0.259860,2.460284,9.429176,14.623710
1.112710,0.205994,0.083923,-0.408198,-0.262255,2.457290,9.396843,14.654777
1.128314,-0.160217,-0.183105,-0.309016,-0.334704,2.439926,9.416003,14.527273
1.143924,-0.396729,-0.274658,-0.156428,-0.171843,2.436334,9.426781,14.490898
1.159519,-0.511169,-0.427246,0.125859,-0.287402,2.456691,9.464502,14.551083
1.175110,-0.160217,-0.450134,0.385259,-0.290396,2.470463,9.461509,14.633590
1.190708,0.022888,-0.373840,0.568364,-0.265847,2.481839,9.480669,14.669644
1.206315,0.114441,-0.488281,0.453923,-0.234113,2.475253,9.441750,14.690100
1.221889,0.175476,-0.373840,0.278447,-0.246687,2.452500,9.413010,14.603390
1.237482,-0.045776,-0.434875,0.003789,-0.252675,2.444118,9.424386,14.538774
1.253075,-0.267029,-0.373840,-0.125911,-0.234113,2.453099,9.427380,14.585488
1.268678,-0.213623,-0.221252,-0.141169,-0.253872,2.460883,9.441750,14.608474
1.284286,-0.122070,-0.053406,-0.278499,-0.245490,2.487827,9.489651,14.690190
1.299891,0.144958,-0.007629,-0.331904,-0.288001,2.509382,9.499230,14.797615
1.315506,0.221252,-0.091553,-0.232722,-0.310155,2.480641,9.448337,14.710874
1.331112,-0.114441,-0.205994,-0.072505,-0.448467,2.444118,9.403430,14.569798
1.346727,-0.473022,-0.274658,-0.049617,-0.260458,2.416575,9.386664,14.437152
1.362331,-0.679016,-0.091553,-0.049617,-0.250280,2.405198,9.419596,14.323833
1.377936,-0.747681,-0.091553,-0.156428,-0.256267,2.451901,9.411213,14.602646
1.393542,-0.755310,-0.114441,-0.293757,-0.263452,2.466271,9.469293,14.598330
1.409153,-0.679016,-0.099182,-0.087764,-0.302970,2.517764,9.482465,14.869950
1.424751,-0.839233,-0.320435,0.072454,-0.338297,2.551893,9.423188,15.152819
1.440369,-1.571655,-0.717163,0.789617,-0.348475,2.572251,9.400435,15.303307
1.455976,-2.227783,-0.595093,1.354192,-0.261656,2.565665,9.383671,15.291950
1.471592,-3.547668,-0.885010,1.300786,-0.205972,2.543511,9.332178,15.245811
1.487206,-4.722595,-0.793457,0.659917,-0.162861,2.506388,9.413010,14.910115
1.502829,-5.256653,-0.587463,0.102971,-0.188608,2.490820,9.450132,14.765922
1.518447,-5.821228,-0.190735,-0.515010,-0.204774,2.490820,9.441750,14.778458
1.534057,-6.469727,0.061035,-1.049067,-0.226329,2.478845,9.436960,14.717637
1.549662,-7.217407,0.144958,-1.163508,-0.273631,2.454296,9.445342,14.565735
1.565279,-8.041382,0.144958,-0.698115,-0.304766,2.422562,9.405825,14.443178
1.580888,-8.819580,-0.236511,-0.370051,-0.335901,2.374662,9.420195,14.148463
1.596488,-9.880066,-0.526428,0.247930,-0.361648,2.339335,9.454923,13.897023
1.612085,-10.604858,-0.663757,0.759099,-0.354463,2.257306,9.456120,13.426030
1.627695,-11.054993,-1.098633,1.216863,-0.259860,2.195634,9.462707,13.063195
1.643290,-11.718750,-0.892639,1.186345,-0.195194,2.177671,9.514798,12.891370
1.658901,-12.084961,-0.938416,0.522588,-0.159868,2.133962,9.590241,12.544734
1.674523,-11.863708,-0.297546,-0.240352,-0.183818,2.113605,9.606407,12.408529
1.690142,-11.482239,0.068665,-0.782039,-0.200583,2.094445,9.599821,12.307663
1.705749,-11.802673,0.114441,-0.972773,-0.237107,2.113006,9.542939,12.485047
1.721365,-12.336731,-0.045776,-0.698115,-0.350870,2.032773,9.515397,12.058824
1.736978,-12.924194,-0.312805,-0.476863,-0.362845,1.974694,9.526175,11.711061
1.752593,-13.557434,-0.404358,-0.347163,-0.388592,1.862128,9.511206,11.077394
1.768206,-14.488220,-0.419617,-0.316646,-0.188608,1.886078,9.559106,11.161489
1.783795,-15.197754,-0.396729,0.095342,-0.156275,1.871708,9.572877,11.063018
1.799401,-16.082764,-0.762939,0.377629,-0.338297,1.869313,9.544137,11.081660
1.814980,-16.983032,-0.961304,0.431035,-0.354463,1.851949,9.632154,10.883300
1.830573,-17.768860,-1.426697,1.468633,-0.322729,1.775308,9.653111,10.420848
1.846174,-18.844604,-1.556396,1.674626,-0.282612,1.687890,9.492045,10.083029
1.861780,-20.545959,-1.403809,1.277898,-0.093406,1.720223,9.636345,10.121485
1.877385,-21.827698,-1.197815,0.926946,-0.141905,1.606459,9.565692,9.533275
1.892982,-22.987366,-0.816345,0.522588,-0.110171,1.416654,9.687240,8.319913
1.908597,-23.651123,-0.038147,-0.400569,-0.217348,1.339415,9.744122,7.826756
1.924203,-23.590088,0.015259,-1.033809,-0.182620,1.347797,9.766275,7.857486
1.939795,-23.513794,0.221252,-1.049067,-0.342488,1.333427,9.784238,7.760641
1.955391,-23.178101,-0.114441,-1.148250,-0.368833,1.165177,9.673468,6.868235
1.970998,-25.070190,-0.473022,-0.232722,-0.177231,0.975970,9.530964,5.846708
1.986605,-26.435852,-0.869751,0.949834,-0.358055,0.920286,9.704004,5.417484
2.002211,-27.084351,-0.862122,-0.278499,-0.388592,0.892145,9.789626,5.207076
2.017827,-27.633667,-0.633240,0.072454,-0.147892,0.865201,9.847706,5.021006
2.033443,-27.397156,-1.113892,1.155828,-0.225731,0.771196,9.896804,4.455699
2.049058,-27.137756,-1.289368,0.682805,-0.212558,0.618514,9.791423,3.614511
2.064673,-26.924133,-1.167297,1.186345,-0.226329,0.504152,9.802200,2.944270
2.080286,-27.084351,-1.159668,1.193975,-0.226329,0.554447,9.850101,3.221692
2.095880,-27.534485,-1.007080,-0.057246,-0.367037,0.328716,9.860279,1.909387
2.111491,-27.511597,-0.205994,-0.103022,-0.145497,0.308359,9.761485,1.809334
2.127095,-27.587891,-0.617981,0.400518,0.057480,0.187410,9.815971,1.093780
2.142691,-28.236389,-0.862122,-0.385310,-0.080832,-0.035925,9.840521,-0.209172
2.158298,-28.457642,0.007629,-0.713374,-0.176633,-0.082029,9.829743,-0.478123
2.173907,-28.175354,0.190735,-0.858333,-0.123344,-0.084424,9.751307,-0.496041
2.189526,-28.594971,-0.358582,-0.133540,-0.270038,-0.113763,9.799806,-0.665102
2.205130,-29.556274,-0.152588,-0.286128,-0.235909,-0.282014,9.869261,-1.636778
2.220743,-30.166626,-0.305176,-0.919368,-0.233514,-0.282014,9.915365,-1.629171
2.236363,-29.953003,0.228882,-0.965144,-0.248483,-0.410746,9.930334,-2.368560
2.251976,-29.563904,0.335693,-0.919368,-0.241298,-0.569416,9.904588,-3.290319
2.267592,-29.006958,0.053406,-1.140620,-0.177231,-0.854423,9.817169,-4.974122
2.283206,-29.075623,0.061035,-1.155879,-0.128732,-0.897534,9.757893,-5.255294
2.298821,-28.274536,0.282288,-1.255061,-0.170645,-0.844244,9.728554,-4.959705
2.314444,-28.808594,0.915527,-1.522090,-0.225731,-0.804727,9.710590,-4.737335
2.330050,-30.021667,0.534058,-1.628901,-0.370629,-1.113684,9.680055,-6.562987
2.345661,-30.265808,0.907898,-1.094844,-0.296982,-1.177152,9.830341,-6.828473
2.361265,-29.373169,0.724792,-0.995662,-0.259261,-1.275348,9.867465,-7.364526
2.376870,-27.992249,0.061035,-1.453425,-0.303569,-1.322051,9.836928,-7.654498
2.392454,-27.488708,0.503540,-1.407649,-0.280816,-1.251997,9.855490,-7.239815
2.408056,-27.511597,0.587463,-1.476313,-0.244292,-1.677112,9.712387,-9.797090
2.423657,-26.962280,0.099182,-1.346614,-0.164658,-1.857338,9.598623,-10.951413
2.439279,-27.191162,0.144958,-0.988032,-0.150886,-1.977687,9.683647,-11.542759
2.454889,-26.382446,-0.114441,-1.407649,-0.259860,-1.944157,9.724961,-11.305202
2.470496,-24.169922,0.091553,-1.171138,-0.299377,-2.144740,9.817169,-12.323682
2.486111,-22.483826,0.534058,-0.827815,-0.235909,-1.999841,9.815971,-11.515466
2.501745,-20.568848,-0.061035,-0.652339,-0.236508,-2.013613,9.707597,-11.718483
2.517351,-19.973755,0.015259,-0.667598,-0.295186,-2.157912,9.623173,-12.639000
2.532956,-19.340515,0.328064,-0.492122,-0.341889,-2.068698,9.439355,-12.361325
2.548547,-18.692017,-0.221252,0.446294,-0.128134,-2.410587,9.513001,-14.219401
2.564156,-18.463135,-1.083374,0.415776,-0.265248,-2.366878,9.611796,-13.833694
2.579757,-19.317627,-0.968933,0.385259,-0.359253,-2.297422,9.630358,-13.417719
2.595370,-18.615723,-0.076294,0.003789,-0.210762,-2.417772,9.600420,-14.135438
2.610962,-17.372131,-0.511169,-0.347163,-0.192200,-2.486030,9.675264,-14.410248
2.626574,-15.815735,-0.495911,-0.064875,-0.206570,-2.490222,9.703405,-14.393410
2.642163,-14.396667,-0.091553,-0.087764,-0.223336,-2.569257,9.659697,-14.894520
2.657766,-12.741089,-0.320435,-0.263240,-0.227527,-2.624941,9.598623,-15.294752
2.673371,-11.314392,-0.167847,-0.156428,-0.240101,-2.699187,9.499829,-15.861443
2.688985,-11.131287,-0.556946,-0.286128,-0.282014,-2.693199,9.453725,-15.901319
2.704593,-11.329651,-0.358582,-0.354792,-0.234113,-2.671046,9.432170,-15.811306
2.720204,-11.474609,-0.404358,-0.240352,-0.239502,-2.729723,9.465700,-16.086531
2.735851,-10.971069,-0.358582,-0.103022,-0.222138,-2.767445,9.492644,-16.253290
2.751460,-10.475159,-0.648499,0.148748,-0.235909,-2.657274,9.491446,-15.640395
2.767048,-10.116577,-0.930786,0.438665,-0.286804,-2.717748,9.527371,-15.921165
2.782628,-9.422302,-0.915527,-1.567866,-0.308958,-2.709366,9.554316,-15.832015
2.798223,-9.033203,-0.488281,0.255559,-0.265248,-2.749482,9.563896,-16.039181
2.813800,-8.590698,-0.495911,0.179265,-0.189805,-2.802173,9.465700,-16.490566
2.829379,-8.605957,-0.869751,-1.575496,-0.198787,-2.945874,9.429775,-17.348871
2.844960,-8.613586,-0.381470,0.026677,-0.223934,-2.985392,9.405825,-17.609344
2.860534,-8.438110,-0.114441,-0.309016,-0.203577,-3.008743,9.401633,-17.745892
2.876116,-8.140564,0.076294,-0.515010,-0.158071,-2.989583,9.428577,-17.592611
2.891709,-7.713318,0.091553,-0.431086,-0.174836,-2.992577,9.468694,-17.539120
2.907293,-7.301331,0.198364,-0.568416,-0.232317,-3.006947,9.484262,-17.591009
2.922874,-6.668091,0.419617,-0.476863,-0.265847,-3.053650,9.447738,-17.911606
2.938456,-6.423950,0.495911,-0.568416,-0.274230,-3.054249,9.399239,-18.001383
2.954052,-4.020691,0.267029,-0.736262,-0.324525,-3.116519,9.397442,-18.347319
2.969645,-5.493164,0.457764,-0.713374,-0.322130,-3.154241,9.401633,-18.546562
2.985238,-4.768372,0.663757,-0.904109,-0.260458,-3.157234,9.363313,-18.633698
3.000824,-2.014160,0.381470,-0.804927,-0.202379,-3.205734,9.384270,-18.860535
3.016418,-3.364563,-0.015259,-0.247981,-0.188009,-3.276387,9.427380,-19.164358
3.031993,-2.105713,-0.320435,0.064824,-0.244891,-3.253035,9.388461,-19.110838
3.047574,-1.197815,-0.701904,0.270818,-0.261656,-3.247048,9.324993,-19.198582
3.063153,-0.244141,-0.724792,0.484441,-0.289797,-3.218906,9.356727,-18.984270
3.078732,0.411987,-1.007080,0.629399,-0.288600,-3.203937,9.368702,-18.879818
3.094306,1.007080,-1.083374,0.629399,-0.327519,-3.216511,9.377085,-18.932905
3.109883,1.548767,-0.785828,0.659917,-0.284409,-3.173401,9.389059,-18.674700
3.125457,2.258301,-0.823975,0.698064,-0.226928,-3.147056,9.381275,-18.544615
3.141061,2.807617,-0.953674,0.591252,-0.189805,-3.151846,9.433966,-18.474243
3.156656,3.135681,-0.793457,0.583623,-0.183818,-3.130889,9.416003,-18.392338
3.172241,3.639221,-0.755310,0.575994,-0.165256,-3.131488,9.441151,-18.349909
3.187830,4.158020,-0.808716,0.438665,-0.178429,-3.118914,9.421392,-18.316917
3.203435,4.638672,-0.488281,0.385259,-0.197589,-3.079396,9.424386,-18.094685
3.219053,4.486084,-0.434875,0.286077,-0.229922,-3.030897,9.411812,-17.850178
3.234632,3.990173,-0.358582,0.049565,-0.264650,-2.966830,9.411213,-17.497156
3.250225,3.669739,-0.205994,0.026677,-0.264650,-2.954855,9.447139,-17.368526
3.265804,3.082275,-0.305176,0.019048,-0.263452,-2.957849,9.484262,-17.321091
3.281387,2.990723,-0.312805,0.034307,-0.267045,-2.942281,9.501625,-17.205708
3.296974,2.914429,-0.411987,0.301335,-0.263452,-2.942880,9.476478,-17.251961
3.312565,3.105164,-0.396729,0.301335,-0.249082,-2.934498,9.492045,-17.179169
3.328161,2.944946,-0.762939,0.461553,-0.219743,-2.924918,9.471088,-17.162046
3.343753,2.738953,-0.686646,0.400518,-0.237706,-2.937491,9.438157,-17.288006
3.359330,2.449036,-0.610352,0.392888,-0.235909,-2.943479,9.428577,-17.337685
3.374959,2.082825,-0.617981,0.324224,-0.243094,-2.945874,9.432170,-17.344732
3.390580,1.502991,-0.534058,0.301335,-0.207768,-2.865042,9.433966,-16.893240
3.406199,1.167297,-0.473022,0.331853,-0.201780,-2.893184,9.454923,-17.013987
3.421795,0.617981,-0.656128,0.278447,-0.255668,-2.872227,9.472885,-16.867571
3.437411,0.358582,-0.633240,0.263188,-0.220941,-2.879412,9.539347,-16.796223
3.452992,0.312805,-0.701904,0.347112,-0.216151,-2.857857,9.537551,-16.680460
3.468620,0.045776,-0.732422,0.553105,-0.235311,-2.872826,9.502823,-16.820744
3.484262,-0.038147,-0.740051,0.392888,-0.214354,-2.864443,9.498631,-16.781410
3.499886,-0.617981,-0.717163,0.316594,-0.196990,-2.855462,9.460311,-16.795702
3.515484,-1.235962,-0.572205,0.247930,-0.226329,-2.866240,9.442947,-16.884739
3.531084,-1.800537,-0.389099,0.080083,-0.189805,-2.857258,9.468694,-16.791632
3.546679,-2.761841,-0.297546,0.064824,-0.215552,-2.886597,9.462707,-16.964319
3.562278,-3.524780,-0.427246,0.026677,-0.220342,-2.872227,9.449533,-16.906879
3.577877,-3.967285,-0.328064,-0.225093,-0.229922,-2.908153,9.513001,-16.998549
3.593470,-4.280090,-0.289917,-0.011470,-0.199984,-2.906356,9.525576,-16.967514
3.609057,-4.653931,-0.312805,-0.164058,-0.234712,-2.921325,9.483064,-17.121820
3.624656,-5.058289,-0.244141,-0.217463,-0.246687,-2.948868,9.476478,-17.284971
3.640252,-5.455017,0.129700,-0.301387,-0.261656,-3.046465,9.441750,-17.882761
3.655844,-5.104065,0.198364,-0.392939,-0.227527,-3.069217,9.280087,-18.300678
3.671437,-6.126404,-0.152588,-0.537898,-0.214953,-3.044070,9.098064,-18.499434
3.687029,-8.277893,-0.419617,-0.103022,-0.235311,-3.156037,9.163329,-19.004751
3.702623,-9.674072,-0.541687,0.202153,-0.289199,-3.193758,9.366905,-18.827423
3.718222,-9.872437,-0.923157,0.507329,-0.264650,-3.284171,9.587846,-18.908115
3.733835,-8.125305,-1.319885,1.056646,-0.279619,-3.197950,9.545933,-18.521187
3.749450,-6.874084,-1.785278,1.300786,-0.268841,-3.190765,9.581859,-18.417789
3.765045,-5.714417,-2.067566,1.583074,-0.268242,-3.066224,9.641135,-17.642515
3.780637,-3.524780,-2.388000,1.750920,-0.255668,-3.104544,9.582458,-17.951391
3.796227,-2.471924,-2.349854,1.659368,-0.232916,-3.372188,9.421392,-19.693750
3.811825,-2.540588,-2.098083,1.331304,-0.244891,-3.251838,9.275895,-19.319065
3.827421,-3.379822,-1.884460,1.026128,-0.180225,-3.302732,9.178298,-19.790833
3.843019,-4.707336,-1.403809,0.705693,-0.165256,-3.328478,9.141175,-20.007542
3.858603,-5.683899,-1.075745,0.453923,-0.164658,-3.309318,9.214822,-19.754732
3.874195,-6.729126,-0.762939,0.255559,-0.124541,-3.320695,9.311820,-19.626780
3.889796,-7.293701,-0.831604,0.408147,-0.123344,-3.290757,9.365708,-19.359552
3.905402,-6.980896,-0.747681,0.331853,-0.158071,-3.315905,9.510607,-19.221279
3.921005,-6.149292,-0.411987,0.026677,-0.222737,-3.328478,9.510008,-19.289915
3.936597,-5.096436,-0.045776,-0.041987,-0.223934,-3.386558,9.499230,-19.621588
3.952196,-4.219055,-0.068665,-0.179316,-0.194595,-3.402125,9.423188,-19.851488
3.967801,-4.066467,-0.030518,-0.309016,-0.189805,-3.427872,9.294456,-20.244387
3.983391,-4.356384,-0.053406,-0.232722,-0.225731,-3.427872,9.200452,-20.434208
3.999004,-5.485535,-0.198364,-0.057246,-0.077838,-3.573369,9.053158,-21.539629
4.014596,-6.454468,-0.480652,0.293706,-0.049098,-3.382965,9.031603,-20.534430
4.030183,-7.919312,-0.541687,-1.575496,-0.116158,-3.507506,9.214822,-20.838699
4.045758,-7.797241,-0.694275,2.315495,-0.196392,-3.350632,9.153749,-20.104614
4.061341,-8.583069,-0.793457,0.614141,-0.150287,-3.533252,9.325591,-20.750549
4.076914,-7.820129,-0.740051,0.331853,-0.305365,-3.592529,9.345949,-21.026472
4.092489,-6.500244,-0.556946,0.240300,-0.264650,-3.666176,9.380078,-21.347897
4.108058,-5.897522,-0.213623,-0.247981,-0.216749,-3.660787,9.283679,-21.520561
4.123649,-4.905701,-0.114441,-0.339534,-0.188608,-3.684139,9.212427,-21.796947
4.139248,-4.455566,0.175476,-0.316646,-0.143102,-3.721262,9.146564,-22.138853
4.154841,-4.669189,0.190735,-0.255610,-0.111368,-3.752995,9.091478,-22.431013
4.170421,-4.554749,-0.114441,-0.125911,-0.102986,-3.784131,9.055553,-22.679054
4.186012,-4.974365,-0.190735,0.003789,-0.158670,-3.804488,9.095670,-22.698324
4.201600,-4.882812,-0.228882,-0.064875,-0.189207,-3.818859,9.134588,-22.688135
4.217183,-4.219055,0.022888,-0.202205,-0.248483,-3.827241,9.200452,-22.586531
4.232767,-3.318787,0.076294,-0.202205,-0.242496,-3.799699,9.283080,-22.259993
4.248369,-2.212524,-0.045776,-0.087764,-0.243693,-3.793711,9.296851,-22.198606
4.263946,-1.327515,-0.427246,0.125859,-0.239502,-3.784730,9.262123,-22.226124
4.279523,-0.587463,-0.793457,0.255559,-0.244891,-3.770958,9.213624,-22.258337
4.295097,-0.312805,-0.961304,0.637029,-0.197589,-3.776946,8.998672,-22.768894
4.310693,-0.549316,-1.274109,0.667546,-0.199385,-3.793711,9.115429,-22.596380
4.326278,-0.770569,-1.403809,0.820134,-0.184417,-3.779940,9.102855,-22.550556
4.341878,-1.350403,-1.220703,0.797246,-0.147892,-3.774551,9.111835,-22.501635
4.357500,-1.747131,-1.022339,0.537847,-0.136516,-3.811075,9.297450,-22.288986
4.373091,-1.594543,-0.633240,0.362371,-0.127535,-3.813470,9.219013,-22.472567
4.388681,-0.862122,-0.373840,0.057195,-0.087418,-3.845204,9.280087,-22.506672
4.404261,0.320435,0.038147,-0.331904,-0.061073,-3.847000,9.274697,-22.527912
4.419835,1.571655,0.305176,-0.400569,-0.044907,-3.829636,9.235180,-22.522766
4.435427,2.067566,0.717163,-0.537898,-0.069456,-3.811075,9.184285,-22.536303
4.451020,2.143860,0.793457,-0.621821,-0.124541,-3.841611,9.099262,-22.888952
4.466609,2.326965,1.075745,-0.858333,-0.190404,-3.869753,9.049565,-23.152401
4.482196,2.075195,1.213074,-1.102473,-0.214953,-3.849994,9.067528,-23.005659
4.497827,2.075195,1.152039,-1.178767,-0.255070,-3.813470,9.142971,-22.640678
4.513425,2.090454,0.961304,-0.782039,-0.244292,-3.773353,9.186082,-22.331316
4.529023,2.235413,0.221252,-0.392939,-0.273032,-3.770360,9.213025,-22.256453
4.544611,2.609253,-0.152588,0.034307,-0.298180,-3.747008,9.275895,-21.996300
4.560204,3.074646,-0.854492,0.484441,-0.282014,-3.775150,9.274098,-22.149458
4.575824,3.921509,-1.243591,0.781987,-0.292192,-3.743416,9.257334,-22.017076
4.591428,4.486084,-1.426697,1.079534,-0.247885,-3.733835,9.213624,-22.060329
4.607025,4.615784,-1.693726,1.087163,-0.197589,-3.684737,9.171711,-21.887808
4.622618,3.959656,-2.059937,1.361821,-0.010179,-3.670367,9.169316,-21.815634
4.638207,3.372192,-1.800537,1.193975,-0.152682,-3.670367,9.161532,-21.832426
4.653809,2.655029,-1.800537,1.132939,-0.125739,-3.682343,9.190871,-21.833614
4.669397,2.677917,-1.365662,0.865911,-0.098196,-3.665577,9.259130,-21.598015
4.684999,2.983093,-0.846863,0.545476,-0.072449,-3.652405,9.311221,-21.418011
4.700605,3.517151,-0.495911,0.293706,-0.044907,-3.603906,9.324394,-21.131662
4.716197,3.662109,1.914978,-0.034358,-0.083826,-3.582949,9.287869,-21.094946
4.731801,3.532410,0.244141,-0.316646,-0.121547,-3.564388,9.310024,-20.949587
4.747394,3.486633,0.587463,-0.499751,-0.142504,-3.593727,9.284876,-21.159014
4.762998,3.311157,0.793457,-0.736262,-0.140109,-3.591332,9.233982,-21.252331
4.778599,3.211975,0.976562,-0.713374,-0.173639,-3.533851,9.237575,-20.934446
4.794197,2.197266,0.640869,-0.698115,-0.214953,-3.505710,9.217815,-20.822758
4.809815,1.281738,0.488281,-0.537898,-0.249082,-3.489543,9.212427,-20.746014
4.825404,0.236511,0.274658,-0.507380,-0.281415,-3.500321,9.271105,-20.684113
4.841011,-0.137329,-0.045776,-0.041987,-0.268841,-3.553610,9.316011,-20.879448
4.856621,-0.213623,-0.411987,0.301335,-0.247286,-3.557203,9.338165,-20.853422
4.872220,0.091553,-0.663757,0.316594,-0.202379,-3.556604,9.348344,-20.829460
4.887819,0.442505,-1.007080,0.545476,-0.237706,-3.569178,9.324394,-20.945772
4.903436,0.755310,-0.892639,0.347112,-0.214953,-3.596122,9.291462,-21.158186
4.919048,0.999451,-0.808716,0.293706,-0.172441,-3.612887,9.219612,-21.398710
4.934650,1.167297,-0.679016,0.255559,-0.135917,-3.646417,9.178897,-21.665993
4.950239,0.907898,-0.701904,0.484441,-0.067061,-3.611690,9.142372,-21.556473
4.965847,0.251770,-0.816345,0.629399,-0.086819,-3.587739,9.137583,-21.436733
4.981463,-0.717163,-1.022339,0.553105,-0.125739,-3.550617,9.210032,-21.082460
4.997057,-1.274109,-0.854492,0.385259,-0.183219,-3.554808,9.289666,-20.939978
5.012675,-1.159668,-0.396729,-0.003840,-0.192200,-3.567382,9.374090,-20.834703
5.028275,-0.381470,0.091553,-0.309016,-0.172441,-3.585943,9.376486,-20.928852
5.043864,0.572205,0.419617,-0.438716,-0.146695,-3.561394,9.363313,-20.824621
5.059467,0.862122,0.190735,-0.537898,-0.139510,-3.541635,9.305234,-20.837164
5.075063,0.823975,0.022888,-0.385310,-0.189805,-3.514092,9.199254,-20.906734
5.090657,-0.267029,0.015259,-0.049617,-0.194595,-3.566783,9.189674,-21.212698
5.106254,-1.487732,-0.511169,0.049565,-0.234113,-3.521876,9.190871,-20.966476
5.121841,-2.502441,-0.534058,0.255559,-0.265847,-3.478766,9.207637,-20.697224
5.137431,-3.082275,-0.549316,0.164006,-0.255070,-3.542234,9.262123,-20.929003
5.153028,-3.494263,-0.488281,0.194524,-0.228724,-3.550617,9.287271,-20.922354
5.168618,-3.036499,-0.686646,0.110601,-0.221539,-3.648213,9.326190,-21.364414
5.184205,-2.761841,-0.427246,0.125859,-0.196990,-3.635640,9.378881,-21.188379
5.199804,-2.082825,-0.503540,0.141118,-0.147294,-3.662584,9.309425,-21.476040
5.215392,-1.335144,-0.297546,0.102971,-0.105381,-3.711682,9.232185,-21.901960
5.230984,-0.770569,-0.267029,0.141118,-0.064666,-3.693120,9.177699,-21.919928
5.246573,-1.029968,-0.167847,-0.080134,-0.075443,-3.714675,9.126206,-22.147987
5.262163,-1.686096,0.083923,-0.270869,-0.125739,-3.729045,9.098064,-22.287371
5.277770,-2.494812,0.305176,-0.522639,-0.157473,-3.726650,9.112434,-22.242756
5.293371,-2.479553,0.610352,-0.751521,-0.193997,-3.748206,9.221408,-22.120161
5.308976,-2.258301,0.450134,-0.728633,-0.167053,-3.722459,9.280684,-21.855597
5.324568,-1.701355,0.442505,-0.499751,-0.216151,-3.528462,9.284277,-20.809149
5.340159,-1.411438,0.030518,-0.148799,-0.231119,-3.655997,9.311820,-21.435913
5.355765,-0.976562,-0.450134,0.019048,-0.271835,-3.825445,9.281882,-22.398571
5.371369,-0.877380,-0.679016,0.278447,-0.283211,-3.705095,9.232185,-21.866764
5.386960,-0.602722,-0.854492,2.307866,-0.252675,-3.774551,9.192668,-22.323273
5.402561,-0.198364,-0.602722,0.209783,-0.214354,-3.780538,9.146564,-22.456718
5.418163,-0.366211,-0.747681,0.286077,-0.148491,-3.759582,9.102855,-22.441177
5.433750,-0.541687,-0.709534,0.270818,-0.114362,-3.768563,9.130996,-22.427019
5.449349,-0.747681,-1.007080,-1.552607,-0.114362,-3.785927,9.111238,-22.563999
5.464937,-0.961304,-0.724792,0.453923,-0.152682,-3.784730,9.175304,-22.415703
5.480536,-0.419617,-0.595093,0.225042,-0.158670,-3.783532,9.220809,-22.309589
5.496150,0.175476,-0.366211,0.080083,-0.165855,-3.769761,9.253142,-22.166145
5.511811,0.709534,-0.160217,-0.156428,-0.176034,-3.727249,9.253142,-21.940022
5.527443,0.846863,-0.122070,-0.232722,-0.197589,-3.719465,9.236377,-21.934521
5.543053,1.045227,-0.053406,-0.125911,-0.207169,-3.704496,9.239969,-21.846880
5.558690,0.846863,-0.427246,-0.049617,-0.195194,-3.725453,9.196859,-22.051828
5.574322,0.823975,-0.534058,0.133489,-0.182021,-3.741020,9.169915,-22.193825
5.589969,0.640869,-0.488281,2.262090,-0.182620,-3.742817,9.168118,-22.207375
5.605589,0.389099,-0.381470,0.469182,-0.150886,-3.738027,9.150755,-22.219709
5.621175,0.160217,-0.549316,0.240300,-0.142504,-3.737428,9.174107,-22.165430
5.636764,-0.175476,-0.442505,0.217412,-0.154479,-3.733835,9.193267,-22.104477
5.652369,0.099182,-0.106812,-0.011470,-0.168849,-3.761977,9.223804,-22.188351
5.667959,0.434875,-0.015259,-0.041987,-0.135917,-3.751798,9.247154,-22.083605
5.683571,0.747681,-0.038147,-0.072505,-0.163460,-3.745811,9.229192,-22.090536
5.699155,0.999451,-0.007629,-0.171687,-0.167651,-3.730842,9.191470,-22.092361
5.714756,1.190186,0.167847,-0.186946,-0.179626,-3.737428,9.218414,-22.069143
5.730373,0.953674,0.007629,-0.301387,-0.180225,-3.713478,9.168717,-22.048738
5.745977,0.923157,0.053406,-0.255610,-0.195194,-3.744014,9.178298,-22.191545
5.761578,0.854492,0.015259,-0.072505,-0.225132,-3.735033,9.191470,-22.114790
5.777175,0.778198,-0.137329,-0.133540,-0.203577,-3.706892,9.217815,-21.907242
5.792758,0.549316,-0.358582,0.034307,-0.202379,-3.677552,9.182489,-21.825916
5.808344,0.373840,-0.526428,0.217412,-0.177231,-3.663182,9.218414,-21.671715
5.823931,0.007629,-0.679016,0.362371,-0.187410,-3.690725,9.247753,-21.756657
5.839516,1.937866,-0.755310,0.255559,-0.193398,-3.729644,9.244161,-21.972078
5.855099,0.518799,-0.724792,0.347112,-0.161664,-3.738626,9.239370,-22.030262
5.870683,0.869751,-0.549316,0.247930,-0.149689,-3.720663,9.222606,-21.970556
5.886249,0.526428,-0.442505,0.209783,-0.118553,-3.691923,9.177100,-21.914789
5.901823,-1.777649,-0.595093,0.125859,-0.122745,-3.666775,9.302838,-21.512205
5.917406,-0.534058,-0.358582,0.011418,-0.110171,-3.724854,9.150156,-22.150301
5.932986,-1.007080,-0.152588,-0.034358,-0.136516,-3.744613,9.223205,-22.097111
5.948572,-0.869751,-0.053406,-0.080134,-0.153281,-3.731441,9.222007,-22.029413
5.964135,-0.450134,0.244141,-0.370051,-0.188608,-3.701503,9.242365,-21.825756
5.979707,0.007629,0.198364,-0.301387,-0.001796,-3.700305,9.298049,-21.700861
5.995294,0.000000,0.022888,-0.202205,-0.186812,-3.655399,9.268710,-21.523310
6.010872,-0.312805,-0.358582,-0.080134,-0.188009,-3.678750,9.193267,-21.809164
6.026441,-0.907898,-0.488281,0.156377,-0.225132,-3.702101,9.150156,-22.027979
6.042034,-1.464844,-0.617981,0.339482,-0.246687,-3.712879,9.141175,-22.105555
6.057641,-1.739502,-0.701904,0.522588,-0.211360,-3.717669,9.154946,-22.101240
6.073230,-2.395630,-0.701904,0.400518,-0.201182,-3.756588,9.184285,-22.245712
6.088845,-2.357483,-0.808716,0.370000,-0.000599,-3.782933,9.196260,-22.360090
6.104426,-2.082825,-0.526428,0.377629,-0.109572,-3.803291,9.239969,-22.372702
6.120017,-1.571655,-0.633240,0.255559,-0.083227,-3.837420,9.224401,-22.587677
6.135611,-0.762939,-0.457764,0.217412,-0.091610,-3.839216,9.222606,-22.601143
6.151204,-0.122070,-0.083923,-0.011470,-0.091610,-3.839216,9.198056,-22.655378
6.166802,-0.045776,0.221252,-0.331904,-0.120948,-3.797303,9.145965,-22.547684
6.182408,-0.205994,0.526428,-0.507380,-0.299976,-3.767964,9.112434,-22.464949
6.198000,-0.877380,0.518799,-0.621821,-0.175435,-3.758983,9.139379,-22.357134
6.213607,-1.464844,0.427246,-0.614192,-0.225731,-3.780538,9.142372,-22.465990
6.229198,-1.342773,0.289917,-0.362422,-0.237706,-3.836223,9.210032,-22.613026
6.244796,-0.885010,-0.076294,-0.148799,-0.235909,-3.825445,9.240568,-22.488760
6.260387,-0.358582,-0.198364,0.049565,-0.224533,-3.784730,9.261524,-22.227421
6.275919,-0.305176,-0.595093,0.347112,-0.199984,-3.757187,9.201649,-22.211014
6.291384,-0.274658,-0.740051,0.278447,-0.197589,-3.814069,9.127403,-22.678589
6.306849,-0.396729,-0.862122,0.347112,-0.207169,-3.888314,9.111238,-23.110865
6.322430,-0.282288,-0.465393,0.034307,-0.184417,-3.889512,9.072318,-23.205929
6.338040,-0.190735,-0.236511,-0.011470,-0.131726,-3.907474,9.111835,-23.211349
6.353650,-0.068665,-0.198364,-0.148799,-0.119751,-3.853586,9.145965,-22.847775
6.369244,0.106812,-0.259399,-0.011470,-0.117356,-3.679948,9.155545,-21.896994
6.384830,0.045776,-0.335693,0.041936,-0.136516,-3.809877,9.199853,-22.495605
6.400418,0.274658,-0.640869,0.156377,-0.193997,-3.954177,9.222007,-23.208502
6.416000,0.625610,-0.556946,0.301335,-0.262853,-3.811075,9.215421,-22.467739
6.431592,1.029968,-0.396729,0.102971,-0.262853,-3.800896,9.210032,-22.425493
6.447186,0.869751,-0.282288,0.118230,-0.207768,-3.686534,9.196859,-21.843235
6.462793,0.061035,-0.442505,0.179265,-0.185614,-3.779940,9.140576,-22.466761
6.478384,-0.473022,-0.534058,0.087712,-0.183219,-3.819457,9.101058,-22.766417
6.493984,-1.075745,-0.679016,0.247930,-0.174836,-3.974535,9.151953,-23.474474
6.509601,-1.045227,-0.495911,0.255559,-0.157473,-3.855981,9.130398,-22.895473
6.525200,-0.816345,-0.488281,0.164006,-0.101190,-3.874543,9.194464,-22.850536
6.540813,-0.007629,-0.282288,0.072454,-0.122146,-3.852389,9.230390,-22.653671
6.556419,0.663757,-0.190735,-0.003840,-0.114362,-3.824247,9.218414,-22.531055
6.572026,0.862122,-0.244141,-0.019099,-0.140109,-3.801495,9.159737,-22.539539
6.587614,0.480652,-0.198364,-0.064875,-0.214354,-3.810476,9.167521,-22.570192
6.603221,0.053406,-0.282288,-0.011470,-0.238304,-3.811075,9.136984,-22.641224
6.618835,-0.312805,-0.160217,-0.141169,-0.235909,-3.688929,9.119021,-22.024868
6.634411,-0.633240,-0.389099,-0.019099,-0.198787,-3.791316,9.145367,-22.517008
6.649984,-1.045227,-0.259399,0.125859,-0.147294,-3.808081,9.188477,-22.511120
6.665599,-1.480103,-0.350952,0.057195,-0.130529,-3.793711,9.212427,-22.382042
6.681220,-1.304626,-0.427246,0.057195,-0.117356,-3.814667,9.212427,-22.493393
6.696818,-0.968933,-0.541687,0.225042,-0.147892,-3.878734,9.196859,-22.867365
6.712428,-0.411987,-0.205994,0.125859,-0.129331,-3.887117,9.164526,-22.984138
6.728051,0.000000,-0.015259,0.026677,-0.128732,-3.931425,9.151354,-23.248377
6.743652,-0.030518,0.228882,-0.179316,-0.147892,-3.838618,9.107046,-22.855410
6.759240,-0.114441,0.030518,-0.370051,-0.094005,-3.838019,9.115429,-22.833353
