Timestamp,Gyro_X_dps,Gyro_Y_dps,Gyro_Z_dps,Accel_X_mps2,Accel_Y_mps2,Accel_Z_mps2
0.005392,0.343323,-0.320435,0.049565,-0.105381,8.291557,4.770264
0.020950,0.305176,-0.144958,0.133489,-0.019759,8.319100,4.748709
0.036672,0.236511,-0.251770,0.102971,-0.032333,8.344847,4.754697
0.052206,0.488281,-0.190735,0.072454,-0.037722,8.340056,4.794214
0.067707,0.434875,-0.160217,0.011418,-0.001198,8.312514,4.786431
0.083258,0.526428,-0.335693,0.110601,-0.058678,8.326285,4.792418
0.098803,0.335693,-0.259399,0.110601,-0.025148,8.322094,4.764875
0.114369,0.068665,-0.274658,-0.057246,-0.025148,8.356223,4.768468
0.130059,0.129700,-0.236511,0.057195,-0.111368,8.346045,4.764277
0.145660,0.190735,-0.114441,0.041936,-0.052092,8.327483,4.778647
0.161313,0.427246,-0.335693,0.034307,-0.041314,8.330477,4.767271
0.176998,0.297546,-0.091553,-0.019099,-0.042512,8.311316,4.785832
0.192639,0.305176,-0.381470,0.041936,-0.045505,8.286169,4.786431
0.208500,0.144958,-0.282288,-0.019099,-0.064067,8.343051,4.785233
0.224393,0.289917,-0.328064,-0.011470,-0.032932,8.331675,4.776851
0.240048,0.236511,-0.244141,0.003789,-0.112566,8.352631,4.807986
0.255591,0.473022,-0.282288,0.148748,-0.073048,8.356223,4.745117
0.271238,0.442505,-0.236511,-0.019099,-0.079634,8.318501,4.736135
0.286763,0.350952,-0.205994,-0.011470,-0.044907,8.361612,4.718771
0.302281,0.328064,-0.137329,0.057195,-0.051493,8.358618,4.733740
0.317783,0.381470,-0.305176,0.003789,-0.037123,8.339458,4.736135
0.333295,0.350952,-0.198364,-0.034358,-0.108973,8.338261,4.774456
0.348830,0.411987,-0.366211,0.102971,-0.073048,8.341853,4.763678
0.364418,0.228882,-0.350952,-0.026729,-0.043110,8.338261,4.740925
0.380044,0.137329,-0.198364,0.102971,-0.025746,8.346045,4.739728
0.395610,0.282288,-0.335693,0.034307,-0.069456,8.310718,4.793017
0.411535,0.328064,-0.160217,-0.003840,-0.073048,8.304730,4.798406
0.427245,0.297546,-0.213623,0.026677,-0.030536,8.312514,4.793616
0.442937,0.389099,-0.144958,0.041936,-0.035925,8.307724,4.773857
0.458661,0.251770,-0.106812,0.019048,-0.034728,8.328082,4.772060
0.474507,0.411987,-0.297546,0.118230,-0.037722,8.329279,4.763079
0.490254,0.205994,-0.106812,-0.057246,-0.009580,8.326884,4.775653
0.508485,0.396729,-0.274658,-0.003840,-0.065863,8.299940,4.801998
0.524286,0.411987,-0.335693,0.026677,-0.126936,8.326884,4.803794
0.539907,0.381470,-0.091553,0.118230,-0.129331,8.303533,4.756493
0.555518,0.144958,-0.320435,-0.110652,-0.087418,8.332871,4.731345
0.571182,0.160217,-0.251770,-0.080134,-0.034129,8.337063,4.787628
0.586723,0.289917,-0.320435,-0.057246,-0.076042,8.334069,4.801400
0.602222,0.396729,-0.114441,0.003789,-0.132325,8.343649,4.792418
0.617886,0.526428,-0.236511,0.095342,-0.043110,8.346045,4.793017
0.633404,0.442505,-0.213623,-0.049617,-0.062869,8.335865,4.774456
0.648940,0.396729,-0.213623,-0.026729,-0.049098,8.323891,4.769067
0.664743,0.282288,-0.343323,-0.049617,-0.024549,8.312514,4.797208
0.680439,0.320435,-0.244141,0.118230,-0.099393,8.316107,4.784036
0.696123,0.274658,-0.328064,0.064824,-0.040715,8.316107,4.770863
0.711849,0.404358,-0.244141,0.019048,-0.061073,8.324490,4.790023
0.727654,0.442505,-0.251770,0.148748,-0.086221,8.320896,4.792418
0.743417,0.221252,-0.152588,-0.103022,-0.014969,8.314310,4.776252
0.759126,0.259399,-0.305176,-0.156428,-0.086819,8.317903,4.787628
0.774744,0.282288,-0.251770,-0.034358,-0.076641,8.326884,4.794813
0.790262,0.457764,-0.434875,0.019048,-0.044308,8.292156,4.795412
0.805904,0.396729,-0.137329,0.110601,-0.096998,8.316107,4.791221
0.821565,0.358582,-0.007629,0.026677,-0.001198,8.310718,4.793616
0.837096,0.343323,-0.411987,-0.064875,-0.094005,8.321495,4.813375
0.852620,0.228882,-0.198364,0.034307,-0.065863,8.346045,4.781641
0.868147,0.396729,-0.343323,-0.133540,-0.058678,8.359217,4.775054
0.883691,0.343323,-0.129700,-0.011470,-0.076641,8.332871,4.774456
0.899249,0.389099,-0.442505,0.209783,-0.061073,8.353230,4.757690
0.914897,0.366211,-0.053406,-0.080134,0.144300,8.311915,4.748709
0.930591,0.312805,-0.167847,0.049565,-0.050295,8.338261,4.757690
0.946275,0.289917,-0.213623,-0.019099,-0.062271,8.326884,4.774456
0.961992,0.335693,-0.236511,-0.103022,-0.044907,8.332871,4.772659
0.977759,0.457764,-0.228882,0.026677,-0.068258,8.311915,4.784036
0.993483,0.465393,-0.259399,0.011418,-0.122745,8.321495,4.779245
1.009279,0.305176,-0.320435,0.019048,0.007185,8.311316,4.769666
1.024896,0.274658,-0.221252,-0.019099,-0.088616,8.367001,4.743320
1.040470,0.297546,-0.396729,0.019048,-0.004191,8.370593,4.767271
1.056131,0.411987,-0.289917,-0.019099,-0.091610,8.322693,4.782838
1.071771,0.381470,-0.312805,-0.011470,-0.068258,8.314310,4.788826
1.087311,0.373840,-0.083923,-0.141169,-0.044308,8.308922,4.751104
1.102862,0.381470,-0.343323,0.057195,-0.093406,8.320298,4.784036
1.118395,0.183105,-0.251770,-0.011470,-0.071851,8.340056,4.799005
1.133963,0.450134,-0.251770,0.148748,-0.015568,8.336464,4.793017
1.149520,0.396729,-0.251770,0.011418,-0.094005,8.333470,4.761882
1.165149,0.419617,-0.228882,0.049565,0.008981,8.313113,4.791221
1.180849,0.411987,-0.175476,-0.019099,-0.082628,8.337662,4.785832
1.196505,0.335693,-0.343323,-0.057246,-0.070054,8.341853,4.752901
1.212179,0.320435,-0.167847,0.049565,-0.077239,8.349637,4.734938
1.227914,0.320435,-0.190735,0.049565,-0.060474,8.343051,4.744518
1.243714,0.442505,-0.282288,-0.011470,-0.045505,8.325088,4.772060
1.259352,0.381470,-0.160217,0.041936,-0.056283,8.302335,4.744518
1.275092,0.328064,-0.213623,-0.095393,-0.049098,8.317903,4.755894
1.290791,0.335693,-0.297546,0.019048,-0.082628,8.328082,4.776851
1.306366,0.305176,-0.236511,0.003789,-0.048499,8.333470,4.756493
1.322130,0.442505,-0.259399,0.041936,-0.013771,8.350236,4.772659
1.337654,0.495911,-0.320435,0.072454,-0.028740,8.310718,4.758888
1.353172,0.289917,-0.267029,0.049565,-0.029938,8.355025,4.791221
1.368681,0.259399,-0.282288,0.041936,-0.077838,8.335267,4.784036
1.384201,0.305176,-0.274658,-0.041987,-0.079036,8.356822,4.776252
1.399742,0.434875,-0.213623,0.049565,-0.111368,8.357421,4.759487
1.415365,0.457764,-0.183105,-0.041987,-0.048499,8.357421,4.783437
1.431004,0.389099,-0.297546,-0.026729,-0.085023,8.345446,4.746314
1.446614,0.335693,-0.076294,-0.110652,-0.038919,8.332273,4.740925
1.462356,0.274658,-0.282288,-0.011470,-0.062869,8.290360,4.773857
1.478048,0.297546,-0.137329,0.049565,-0.046703,8.341853,4.771462
1.493710,0.343323,-0.328064,0.080083,-0.067659,8.320298,4.781042
1.509345,0.404358,-0.244141,0.041936,-0.040715,8.314909,4.775054
1.525219,0.297546,-0.320435,-0.095393,-0.041913,8.348439,4.788826
1.540859,0.221252,-0.267029,0.003789,-0.080233,8.324490,4.779245
1.556456,0.297546,-0.129700,-0.034358,-0.027543,8.343051,4.747511
1.572127,0.335693,-0.289917,0.057195,-0.092208,8.329878,4.772659
1.587678,0.587463,-0.190735,0.164006,-0.061073,8.335865,4.759487
1.603185,0.511169,-0.228882,0.125859,0.002994,8.343649,4.737333
1.618686,0.221252,-0.312805,-0.034358,-0.075443,8.369396,4.736135
1.634231,0.289917,-0.236511,-0.034358,-0.016166,8.335267,4.742722
1.649779,0.450134,-0.259399,-0.179316,-0.120948,8.322094,4.795412
1.665536,0.396729,-0.251770,0.026677,-0.091610,8.321495,4.794813
1.681315,0.305176,-0.350952,0.095342,-0.040715,8.310718,4.776851
1.697115,0.244141,-0.190735,0.110601,-0.076042,8.344847,4.803196
1.712887,0.305176,-0.289917,0.049565,0.025148,8.350834,4.767869
1.728620,0.267029,-0.366211,-0.019099,-0.058079,8.305927,4.788826
1.744366,0.434875,-0.297546,-0.011470,-0.088017,8.329878,4.784036
1.760022,0.404358,-0.282288,0.194524,-0.064067,8.298742,4.781641
1.775788,0.366211,-0.083923,0.087712,-0.074844,8.320298,4.749308
1.791396,0.198364,-0.312805,0.087712,-0.058079,8.341853,4.742123
1.809724,0.282288,-0.213623,0.087712,-0.083826,8.337063,4.760684
1.825561,0.389099,-0.213623,0.110601,-0.049697,8.332871,4.794214
1.841128,0.404358,-0.160217,0.095342,-0.149090,8.355624,4.774456
1.856749,0.244141,-0.205994,-0.049617,0.021555,8.340655,4.745715
1.872423,0.373840,-0.228882,-0.026729,-0.095801,8.328082,4.747511
1.887965,0.198364,-0.099182,-0.064875,-0.064067,8.371791,4.786431
1.903518,0.373840,-0.312805,0.118230,-0.057480,8.317304,4.785233
1.919058,0.312805,-0.244141,0.003789,-0.118553,8.334069,4.805591
1.934624,0.343323,-0.358582,-0.019099,-0.014370,8.320298,4.809782
1.950203,0.343323,-0.175476,-0.141169,-0.064067,8.295150,4.773258
1.965897,0.335693,-0.144958,-0.019099,-0.040117,8.340655,4.783437
1.981635,0.404358,-0.404358,-0.034358,-0.031135,8.354427,4.791221
1.997326,0.335693,-0.213623,-0.125911,-0.068258,8.316706,4.773258
2.013111,0.358582,-0.312805,0.057195,-0.061073,8.332273,4.781042
2.028924,0.343323,-0.274658,0.049565,-0.056283,8.333470,4.785832
2.044788,0.549316,-0.244141,0.003789,-0.068857,8.308323,4.789424
2.060671,0.434875,-0.129700,-0.011470,-0.076641,8.358020,4.774456
2.076482,0.343323,-0.244141,0.080083,-0.062869,8.329878,4.775653
2.092647,0.419617,-0.350952,0.019048,-0.076042,8.313113,4.761283
2.108253,0.389099,-0.267029,-0.041987,-0.050894,8.311316,4.772659
2.123880,0.328064,-0.236511,-0.049617,-0.074844,8.316706,4.773857
2.139574,0.442505,-0.350952,0.011418,-0.064067,8.323891,4.777449
2.155106,0.251770,-0.251770,0.034307,-0.058079,8.331675,4.767271
2.170626,0.213623,-0.198364,0.072454,-0.045505,8.310718,4.763678
2.186158,0.274658,-0.251770,0.064824,-0.046104,8.322693,4.750505
2.201690,0.267029,-0.205994,0.041936,0.001198,8.321495,4.766073
2.217228,0.328064,-0.289917,-0.103022,-0.050295,8.341853,4.746314
2.232811,0.389099,-0.251770,-0.057246,-0.061672,8.335267,4.784635
2.248502,0.427246,-0.267029,0.080083,-0.128134,8.324490,4.742722
2.264161,0.404358,-0.320435,0.102971,-0.101788,8.331675,4.751104
2.279845,0.282288,-0.320435,-0.057246,-0.037722,8.325088,4.760086
2.295609,0.350952,-0.160217,-0.011470,-0.076641,8.349637,4.776851
2.311317,0.335693,-0.198364,-0.110652,-0.025746,8.339458,4.758888
2.326968,0.442505,-0.213623,-0.064875,-0.062869,8.325088,4.782239
2.342706,0.457764,-0.221252,0.019048,-0.104782,8.323891,4.796011
2.358249,0.282288,-0.450134,0.156377,-0.011975,8.316706,4.784036
2.373916,0.343323,-0.343323,0.011418,-0.050295,8.326285,4.790622
2.389566,0.152588,-0.221252,-0.049617,-0.009580,8.358020,4.781641
2.405101,0.251770,-1.953125,0.019048,-0.046703,8.297545,4.783437
2.420615,0.381470,-0.411987,-0.034358,-0.128134,8.329878,4.808585
2.436134,0.473022,-0.343323,0.026677,-0.022154,8.286169,4.779844
2.451692,0.381470,-0.366211,0.095342,-0.087418,8.299341,4.777449
2.467273,0.282288,-0.198364,-0.003840,-0.014370,8.345446,4.776252
2.482862,0.320435,-0.320435,0.102971,-0.047900,8.309521,4.778048
2.498539,0.495911,-0.160217,-0.011470,-0.095202,8.319699,4.785832
2.514290,0.450134,-0.274658,-0.057246,-0.010778,8.329279,4.798406
2.529981,0.389099,-0.305176,-0.019099,-0.119152,8.283175,4.779844
2.549906,0.267029,-0.198364,-0.064875,-0.073647,8.346045,4.783437
2.565609,0.167847,-0.282288,0.110601,-0.022753,8.320298,4.771462
2.581356,0.450134,-0.175476,0.019048,-0.086819,8.321495,4.764875
2.597190,0.366211,-0.205994,0.011418,-0.038320,8.310718,4.793616
2.612981,0.358582,-0.267029,0.064824,-0.059875,8.333470,4.775054
2.628742,0.282288,-0.282288,0.102971,-0.043110,8.301138,4.754697
2.644838,0.305176,-0.320435,-0.034358,-0.059277,8.315508,4.763678
2.660675,0.259399,-0.312805,0.072454,-0.054487,8.344847,4.801400
2.676404,0.343323,-0.106812,0.110601,-0.049697,8.328680,4.796011
2.692025,0.335693,-0.305176,0.003789,-0.031734,8.328680,4.772659
2.707682,0.419617,-0.152588,-0.072505,-0.053888,8.322094,4.777449
2.723369,0.335693,-0.251770,0.019048,-0.050295,8.346643,4.769666
2.738922,0.343323,-0.167847,-0.019099,-0.037722,8.334668,4.761882
2.754447,0.450134,-0.190735,-0.041987,-0.053888,8.346643,4.773258
2.769953,0.335693,-0.160217,0.064824,-0.084424,8.310718,4.788227
2.785446,0.450134,-0.358582,0.034307,-0.076042,8.332871,4.778048
2.801010,0.297546,-0.335693,-0.049617,-0.065863,8.327483,4.733740
2.816646,0.289917,-0.213623,0.026677,-0.071252,8.335267,4.774456
2.832525,0.419617,-0.251770,0.057195,-0.076641,8.337063,4.788826
2.848227,0.350952,-0.236511,0.080083,-0.057480,8.337662,4.775054
2.863979,0.267029,-0.205994,-0.164058,-0.049697,8.337063,4.757092
2.879739,0.251770,-0.274658,-0.019099,-0.099992,8.345446,4.751703
2.895484,0.282288,-0.236511,0.087712,-0.093406,8.310718,4.774456
2.911973,0.305176,-0.228882,0.026677,-0.067061,8.340655,4.773857
2.927753,0.251770,-0.244141,0.156377,-0.063468,8.339458,4.783437
2.943668,0.511169,-0.213623,0.072454,-0.003593,8.319100,4.785233
2.959381,0.511169,-0.267029,-0.034358,-0.073647,8.317903,4.777449
2.974973,0.282288,-0.358582,-0.049617,-0.020358,8.339458,4.812177
2.990701,0.396729,-0.175476,0.003789,-0.040715,8.340056,4.772060
3.006445,0.274658,-0.190735,-0.026729,-0.073048,8.357421,4.799603
3.021972,0.335693,-0.350952,0.102971,-0.040715,8.350236,4.795412
3.037506,0.335693,-0.221252,0.019048,-0.115560,8.302934,4.760086
3.053020,0.267029,-0.289917,-0.049617,-0.081431,8.338860,4.794813
3.068566,0.099182,-0.366211,-0.087764,-0.058678,8.352032,4.797208
3.084086,0.099182,-0.244141,-0.080134,-0.095202,8.342452,4.809183
3.099717,0.320435,-0.328064,0.072454,-0.040715,8.319100,4.812776
3.115354,0.549316,-0.297546,0.110601,-0.076042,8.270002,4.776851
3.131029,0.335693,-0.289917,0.102971,-0.042512,8.298742,4.792418
3.146774,0.282288,-0.190735,0.064824,-0.008383,8.332273,4.770863
3.162473,0.434875,-0.213623,0.064824,-0.113763,8.311316,4.793616
3.178188,0.389099,-0.228882,-0.095393,-0.002994,8.328680,4.779844
3.193906,0.556946,-0.236511,-0.019099,-0.076042,8.301737,4.764875
3.209659,0.373840,-0.198364,0.057195,-0.049098,8.323891,4.755295
3.225229,0.358582,-0.282288,0.011418,-0.036524,8.353230,4.740326
3.240893,0.320435,-0.175476,0.034307,-0.101788,8.325088,4.771462
3.256577,0.122070,-0.289917,-0.049617,-0.023950,8.316706,4.758289
3.272165,0.244141,-0.198364,-0.034358,-0.081431,8.356223,4.770264
3.287670,0.274658,-0.297546,-0.011470,-0.065863,8.293354,4.782838
3.303175,0.480652,-0.213623,-0.003840,-0.070054,8.322693,4.769067
3.318701,0.190735,-0.267029,-0.080134,-0.078437,8.335267,4.774456
3.334228,0.381470,-0.106812,0.064824,-0.037722,8.324490,4.761882
3.349866,0.236511,-0.343323,-0.072505,-0.037722,8.335267,4.761283
3.365523,0.305176,-0.137329,0.034307,-0.095801,8.320298,4.777449
3.381103,0.221252,-0.228882,-0.019099,-0.105381,8.328680,4.790622
3.396834,0.320435,-0.114441,-0.003840,-0.058678,8.325088,4.800202
3.412576,0.366211,-0.213623,0.080083,-0.071851,8.315508,4.763079
3.428275,0.335693,-0.236511,0.049565,-0.017963,8.318501,4.781641
3.444031,0.381470,-0.251770,0.080083,-0.070054,8.324490,4.770264
3.459612,0.457764,-0.076294,0.011418,-0.050894,8.327483,4.793017
3.475160,0.305176,-0.297546,0.026677,-0.041314,8.340056,4.752901
3.490768,0.411987,-0.152588,0.072454,-0.082628,8.331675,4.773258
3.506295,0.282288,-0.297546,0.041936,-0.047302,8.331675,4.743919
3.521832,0.122070,-0.320435,-0.034358,-0.044907,8.319100,4.752901
3.537364,0.389099,-0.228882,-0.057246,-0.098196,8.337063,4.802597
3.552877,0.312805,-0.251770,-0.026729,-0.086819,8.328680,4.769666
3.568421,0.389099,-0.129700,0.072454,-0.052690,8.326285,4.788227
3.584001,0.297546,-0.251770,0.003789,-0.023950,8.328680,4.760086
3.599680,0.251770,-0.114441,0.049565,-0.042512,8.331076,4.761283
3.615323,0.373840,-0.366211,0.049565,-0.070054,8.337662,4.793017
3.631017,0.427246,-0.305176,-0.087764,-0.087418,8.302934,4.776252
3.646654,0.350952,-0.236511,-0.034358,-0.030536,8.307125,4.788227
3.662322,0.465393,-0.183105,-0.041987,-0.088616,8.293354,4.797208
3.677990,0.328064,-0.328064,0.057195,-0.058079,8.319100,4.784036
3.693790,0.236511,-0.236511,0.072454,0.052092,8.305927,4.783437
3.709358,0.450134,-0.297546,0.118230,-0.098795,8.322094,4.757092
3.724932,0.297546,-0.183105,0.049565,-0.023950,8.319100,4.800801
3.740551,0.434875,-0.396729,-0.003840,-0.083826,8.314909,4.768468
3.756067,0.358582,-0.213623,-0.087764,-0.111967,8.309521,4.789424
3.771567,0.244141,-0.358582,-0.064875,-0.040117,8.319100,4.785832
3.787064,0.389099,-0.251770,0.095342,-0.067061,8.311915,4.788826
3.802561,0.366211,-0.358582,0.087712,-0.029339,8.323891,4.789424
3.818103,0.411987,-0.389099,0.041936,0.151485,8.305329,4.791820
3.833778,0.404358,-0.190735,-0.057246,-0.088616,8.277786,4.785832
3.849416,0.251770,-0.289917,0.072454,-0.152084,8.311915,4.784635
3.865012,0.282288,-0.343323,-0.026729,-0.075443,8.325088,4.764875
3.880700,0.373840,-0.114441,0.003789,-0.089813,8.310119,4.747511
3.896418,0.289917,-0.259399,0.110601,-0.019759,8.352032,4.757690
3.912160,0.457764,-0.274658,0.003789,-0.087418,8.336464,4.786431
3.927905,0.526428,-0.358582,-0.080134,-0.088017,8.338261,4.760684
3.943671,0.427246,-0.190735,0.011418,-0.056882,8.331076,4.734938
3.959229,0.282288,-0.251770,0.125859,-0.074844,8.335865,4.762480
3.974863,0.289917,-0.373840,-0.026729,-0.013771,8.355624,4.757092
3.990404,0.312805,-0.289917,0.041936,-0.062271,8.327483,4.786431
4.006017,0.312805,-0.190735,0.034307,-0.067061,8.329878,4.746314
4.021557,0.389099,-0.259399,0.041936,-0.014969,8.340056,4.775054
4.037096,0.434875,-0.305176,0.057195,-0.065264,8.332273,4.779844
4.052627,0.404358,-0.289917,0.080083,-0.058079,8.312514,4.808585
4.068179,0.236511,-0.259399,-0.049617,-0.036524,8.332871,4.763079
4.083897,0.450134,-0.305176,0.011418,-0.079036,8.340655,4.783437
4.099663,0.389099,-0.183105,0.011418,-0.029339,8.334069,4.772659
4.115370,0.289917,-0.419617,0.041936,-0.061672,8.324490,4.758888
4.131562,0.427246,-0.289917,-0.011470,-0.073048,8.308323,4.774456
4.147335,0.335693,-0.221252,0.011418,-0.064666,8.360415,4.782838
4.163080,0.343323,-0.274658,0.064824,-0.076641,8.312514,4.790023
4.178781,0.328064,-0.213623,0.019048,-0.045505,8.329878,4.787628
4.194511,0.396729,-0.480652,0.049565,-0.085023,8.337662,4.780443
4.210121,0.404358,-0.236511,0.110601,-0.082029,8.328680,4.775653
4.225706,0.511169,-0.228882,0.087712,0.025148,8.332273,4.738530
4.241391,0.427246,-0.312805,0.141118,-0.121547,8.349038,4.749308
4.256931,0.305176,-0.183105,-0.019099,-0.007185,8.322693,4.783437
4.272441,0.358582,-0.236511,-0.034358,-0.052690,8.357421,4.764277
4.287946,0.358582,-0.328064,0.003789,-0.082628,8.345446,4.774456
4.303521,0.396729,-0.366211,0.019048,-0.035925,8.302335,4.764277
4.319063,0.244141,-0.183105,0.095342,-0.103585,8.342452,4.765474
4.334744,0.259399,-0.183105,0.057195,-0.055684,8.329878,4.761882
4.350415,0.343323,-0.205994,-0.049617,-0.049098,8.326285,4.780443
4.365999,0.335693,-0.076294,-0.041987,-0.073048,8.364606,4.790622
4.381666,0.259399,-0.312805,-0.041987,-0.006586,8.342452,4.779844
4.397320,0.320435,-0.167847,-0.125911,-0.062271,8.300539,4.778048
4.413021,0.236511,-0.328064,-0.118281,-0.082029,8.307125,4.787628
4.428690,0.373840,-0.160217,-0.019099,-0.031135,8.295150,4.793616
4.444521,0.381470,-0.259399,0.057195,-0.084424,8.307724,4.793017
4.460122,0.198364,-0.228882,0.133489,-0.017364,8.337662,4.782838
4.475711,0.511169,-0.267029,0.041936,-0.096998,8.319699,4.761283
4.491352,0.442505,-0.228882,0.011418,-0.071851,8.337063,4.803196
4.506846,0.358582,-0.274658,0.003789,-0.052092,8.305329,4.810381
4.522333,0.442505,-0.274658,-0.080134,-0.023351,8.305927,4.771462
4.537807,0.381470,-0.099182,-0.080134,-0.057480,8.367001,4.747511
4.553360,0.366211,-0.289917,-0.003840,-0.068258,8.317304,4.760684
4.568890,0.389099,-0.282288,0.011418,-0.070054,8.304132,4.763079
4.584498,0.228882,-0.213623,0.049565,-0.061672,8.342452,4.772659
4.600075,0.282288,-0.152588,0.125859,-0.015568,8.315508,4.761283
4.615639,0.419617,-0.312805,0.102971,-0.044308,8.335267,4.753499
4.631816,0.190735,-0.343323,0.003789,-0.040117,8.326285,4.784036
4.647588,0.427246,-0.244141,0.041936,-0.049098,8.338261,4.780443
4.663301,0.305176,-0.312805,0.095342,-0.086819,8.361013,4.771462
4.678951,0.289917,-0.183105,0.049565,-0.058079,8.346643,4.763079
4.694950,0.434875,-0.213623,0.141118,-0.084424,8.362210,4.740326
4.710545,0.282288,-0.198364,0.003789,-0.023950,8.353828,4.743320
4.726075,0.404358,-0.221252,-0.026729,-0.049098,8.361013,4.759487
4.741689,0.541687,-0.205994,0.041936,-0.059875,8.326285,4.759487
4.757183,0.274658,-0.045776,0.072454,-0.054487,8.334668,4.778048
4.772705,0.457764,-0.305176,0.171636,-0.156874,8.334668,4.758289
4.788199,0.267029,-0.129700,0.041936,0.021555,8.332273,4.767271
4.803712,0.419617,-0.259399,0.064824,-0.073647,8.327483,4.760684
4.819213,0.312805,-0.205994,-0.057246,-0.021555,8.315508,4.776252
4.834780,0.236511,-0.312805,-0.095393,-0.002395,8.335267,4.775054
4.850367,0.465393,-0.244141,-0.019099,-0.116757,8.331076,4.786431
4.865947,0.267029,-0.434875,-0.011470,-0.047900,8.302335,4.804992
4.881727,0.183105,-0.335693,-0.019099,-0.070653,8.317903,4.819362
4.897475,0.343323,-0.160217,0.003789,-0.105980,8.338860,4.786431
4.913189,0.328064,-0.267029,-0.019099,-0.020358,8.355624,4.784635
4.928889,0.396729,-0.350952,0.102971,-0.082029,8.308323,4.773857
4.944684,0.335693,-0.205994,0.003789,-0.024549,8.333470,4.757690
4.960257,0.328064,-0.350952,-0.049617,-0.074844,8.363408,4.740925
4.975896,0.213623,-0.190735,-0.087764,-0.098795,8.335865,4.767271
4.991537,0.389099,-0.267029,-0.080134,-0.041314,8.328680,4.771462
5.007082,0.640869,-0.114441,0.133489,-0.058079,8.318501,4.748110
5.022602,0.297546,-0.282288,0.125859,-0.023950,8.321495,4.747511
5.038126,0.213623,-0.267029,-0.064875,-0.040715,8.333470,4.776851
5.053654,0.274658,-0.343323,-0.011470,-0.074246,8.316706,4.790622
5.069230,0.396729,-0.305176,-0.064875,-0.046703,8.329279,4.793017
5.084904,0.358582,-0.205994,-0.011470,-0.050894,8.301737,4.781641
5.100526,0.419617,-0.114441,0.118230,-0.085622,8.308922,4.763079
5.116175,0.335693,-0.320435,-0.003840,-0.065863,8.327483,4.773258
5.132889,0.312805,-0.114441,0.003789,-0.029938,8.338261,4.794813
5.148622,0.434875,-0.205994,-0.003840,-0.044308,8.323891,4.786431
5.164324,0.305176,-0.282288,0.057195,-0.039518,8.328082,4.801998
5.179993,0.633240,-0.289917,0.019048,-0.055684,8.305329,4.781042
5.195628,0.335693,-0.221252,0.072454,-0.036524,8.292156,4.758289
5.211329,0.198364,-0.228882,-0.011470,-0.020358,8.286169,4.781042
5.226903,0.236511,-0.205994,0.125859,-0.073048,8.311915,4.799603
5.242569,0.282288,-0.144958,0.125859,-0.061073,8.298742,4.809782
5.258119,0.373840,-0.244141,0.034307,-0.035327,8.324490,4.780443
5.273699,0.572205,-0.236511,-0.034358,-0.033530,8.328082,4.787029
5.289187,0.389099,-0.350952,-0.034358,-0.069456,8.311915,4.769666
5.304674,0.137329,-0.183105,0.003789,-0.060474,8.328680,4.779245
5.320187,0.282288,-0.228882,0.080083,-0.051493,8.305329,4.784036
5.335746,0.167847,-0.198364,-0.026729,-0.055684,8.329279,4.782239
5.351346,0.396729,-0.289917,-0.041987,-0.042512,8.313711,4.772060
5.366955,0.411987,-0.160217,-0.072505,-0.032333,8.325088,4.790023
5.382670,0.335693,-0.236511,-0.110652,-0.043709,8.323891,4.766672
5.398400,0.259399,-0.366211,-0.103022,-0.074246,8.319100,4.801400
5.414167,0.411987,-0.259399,0.026677,-0.086819,8.338261,4.799603
5.429910,0.389099,-0.152588,0.095342,-0.079036,8.314909,4.778048
5.445681,0.282288,-0.236511,0.202153,-0.064666,8.346045,4.755295
5.461284,0.259399,-0.213623,0.011418,0.005389,8.339458,4.753499
5.476836,0.312805,-0.129700,0.133489,-0.047302,8.302934,4.791221
5.495323,0.274658,-0.366211,-0.026729,-0.044907,8.322693,4.804393
5.510985,0.404358,-0.267029,-0.041987,-0.085023,8.325088,4.752901
5.529288,0.274658,-0.129700,-0.003840,-0.107776,8.323891,4.776851
5.544961,0.274658,-0.122070,0.049565,-0.008981,8.325686,4.791820
5.560558,0.434875,-0.411987,-0.026729,-0.034728,8.277187,4.801998
5.576209,0.320435,-0.205994,-0.019099,-0.029938,8.292755,4.848103
5.591902,0.213623,-0.373840,-0.026729,-0.034129,8.322094,4.812776
5.607484,0.389099,-0.282288,0.072454,-0.067061,8.310718,4.789424
5.623000,0.518799,-0.259399,0.019048,-0.117356,8.349038,4.788826
5.638537,0.373840,-0.389099,0.110601,-0.092807,8.332871,4.772659
5.654069,0.366211,-0.190735,0.034307,-0.012574,8.316706,4.702605
5.669638,0.274658,-0.396729,0.041936,-0.092208,8.390951,4.739728
5.685306,0.282288,-0.167847,0.141118,-0.022154,8.362210,4.730148
5.703177,0.465393,-0.228882,0.080083,-0.025148,8.312514,4.731944
5.718769,0.411987,-0.167847,-0.041987,-0.120350,8.348439,4.752302
5.734429,0.236511,-0.434875,-0.133540,-0.062271,8.358618,4.742722
5.750079,0.228882,-0.282288,-0.041987,-0.111368,8.340655,4.734339
5.765727,0.267029,-0.221252,-0.034358,-0.035327,8.375982,4.775054
5.781434,0.312805,-0.328064,0.110601,-0.082628,8.323292,4.742123
5.797082,0.343323,-0.083923,0.156377,-0.094603,8.320298,4.760086
5.812715,0.198364,-0.373840,0.057195,0.017364,8.313113,4.760684
5.828479,0.320435,-0.228882,0.011418,-0.076042,8.314310,4.724759
5.844062,0.343323,-0.267029,-0.026729,-0.027543,8.331675,4.793616
5.859704,0.389099,-0.297546,0.011418,-0.074246,8.332273,4.783437
5.875401,0.396729,-0.198364,0.087712,-0.059875,8.302335,4.769067
5.891016,0.389099,-0.267029,0.034307,-0.021555,8.320298,4.771462
5.906558,0.251770,-0.259399,0.102971,-0.071851,8.317304,4.753499
5.922091,0.274658,-0.274658,-0.003840,-0.062869,8.303533,4.782239
5.937632,0.213623,-0.427246,-0.064875,-0.056882,8.356822,4.796609
5.953333,0.625610,-0.289917,-0.118281,-0.137714,8.299940,4.788826
5.969007,0.373840,-0.106812,0.064824,-0.073647,8.328082,4.784635
5.984665,0.312805,-0.297546,0.049565,-0.056283,8.323891,4.778048
6.000263,0.350952,-0.167847,0.148748,-0.078437,8.310718,4.820560
6.015965,0.396729,-0.389099,-0.049617,-0.012574,8.345446,4.813375
6.031680,0.495911,-0.373840,-0.034358,-0.117356,8.349038,4.806788
6.047367,0.434875,-0.190735,0.057195,-0.056882,8.311915,4.773258
6.063032,0.495911,-0.320435,0.019048,-0.020358,8.349637,4.779844
6.078802,0.465393,-0.091553,0.057195,-0.053888,8.307724,4.768468
6.094384,0.274658,-0.244141,0.026677,-0.037123,8.306526,4.774456
6.109992,0.274658,-0.297546,-0.019099,-0.088017,8.342452,4.772060
6.125631,0.427246,-0.022888,0.194524,-0.062869,8.323292,4.790023
6.141407,0.328064,-0.282288,0.087712,-0.001198,8.332273,4.780443
6.156943,0.274658,-0.198364,0.019048,-0.057480,8.328680,4.748110
6.172457,0.274658,-0.267029,-0.034358,-0.055085,8.302934,4.775054
6.187984,0.350952,-0.282288,0.049565,-0.070653,8.327483,4.813973
6.203703,0.205994,-0.259399,-0.057246,-0.104183,8.316107,4.797208
6.219377,0.221252,-0.350952,-0.019099,-0.071851,8.331076,4.774456
6.234990,0.503540,-0.198364,-0.003840,-0.053888,8.361013,4.788826
6.250751,0.411987,-0.358582,0.095342,-0.067659,8.296947,4.754098
6.266545,0.297546,-0.251770,0.125859,-0.053888,8.343649,4.782838
6.282338,0.160217,-0.137329,0.019048,-0.032333,8.345446,4.791820
6.298193,0.427246,-0.350952,-0.080134,-0.067659,8.325088,4.775653
6.319793,0.373840,-0.267029,0.003789,-0.053289,8.347241,4.742123
6.337652,0.366211,-0.198364,-0.041987,-0.032333,8.332273,4.757092
6.353714,0.343323,-0.305176,-0.026729,-0.100591,8.299341,4.761882
6.369340,0.236511,-0.328064,-0.080134,-0.031734,8.301138,4.799603
6.384990,0.144958,-0.335693,-0.133540,-0.049098,8.340655,4.822356
6.400670,0.396729,-0.068665,-0.019099,-0.032932,8.320896,4.785832
6.416504,0.328064,-0.167847,0.041936,-0.068258,8.313113,4.788227
6.432302,0.350952,-0.297546,0.095342,-0.095801,8.325088,4.760684
6.448051,0.282288,-0.221252,-0.041987,-0.007784,8.337662,4.740326
6.463748,0.373840,-0.358582,-0.026729,-0.082628,8.352631,4.765474
6.479560,0.419617,-0.175476,0.110601,-0.029339,8.340056,4.762480
6.495926,0.358582,-0.267029,0.087712,-0.071252,8.314310,4.754098
6.512911,0.358582,-0.167847,0.034307,-0.058079,8.319699,4.787029
6.528715,0.450134,-0.267029,-0.057246,-0.074246,8.301138,4.805591
6.544316,0.274658,-0.205994,0.064824,-0.062869,8.317903,4.784036
6.563934,0.259399,-0.320435,-0.049617,-0.094005,8.349637,4.809782
6.579606,0.411987,-0.221252,0.034307,-0.073647,8.316107,4.781042
6.595339,0.427246,-0.244141,0.049565,-0.048499,8.305927,4.734339
6.611173,0.244141,-0.236511,0.102971,-0.037123,8.346045,4.767271
6.626661,0.396729,-0.312805,-0.026729,-0.047900,8.348439,4.752302
6.642158,0.373840,-0.061035,0.041936,-0.057480,8.352631,4.745715
6.657635,0.350952,-0.404358,0.118230,-0.053888,8.339458,4.788227
6.673238,0.343323,-0.335693,0.034307,-0.069456,8.318501,4.769067
6.688750,0.297546,-0.274658,0.041936,-0.019759,8.337662,4.770264
6.704278,0.160217,-0.328064,-0.110652,-0.059277,8.324490,4.761882
6.719864,0.259399,-0.259399,-0.011470,-0.076641,8.323891,4.775653
6.735642,0.312805,-0.236511,0.072454,-0.117356,8.319100,4.821158
6.751370,0.572205,-0.137329,0.087712,-0.059277,8.305329,4.810980
6.767132,0.526428,-0.251770,0.102971,-0.036524,8.310119,4.790622
6.782957,0.297546,-0.183105,0.034307,-0.029938,8.312514,4.807986
6.798734,0.228882,-0.358582,-0.148799,-0.032333,8.307724,4.781641
6.814455,0.274658,-0.373840,-0.041987,-0.070054,8.325686,4.801998
6.832852,0.404358,-0.282288,0.148748,-0.068258,8.361013,4.799603
6.848593,0.419617,-0.213623,0.080083,-0.153281,8.320896,4.749308
6.864302,0.343323,-0.244141,-0.019099,-0.089813,8.328082,4.746314
6.880238,0.190735,-0.198364,0.034307,-0.111967,8.351433,4.773258
6.895937,0.297546,-0.289917,-0.125911,-0.038320,8.311915,4.760086
6.911529,0.350952,-0.289917,-0.057246,-0.082628,8.334668,4.766672
6.927207,0.366211,-0.167847,-0.087764,-0.062271,8.349038,4.800202
6.944260,0.564575,-0.198364,-0.072505,-0.005389,8.307724,4.772060
6.962877,0.396729,-0.152588,0.133489,-0.071252,8.328680,4.778048
6.979798,0.099182,-0.305176,0.072454,-0.041913,8.326884,4.772659
6.995448,0.228882,-0.213623,-0.064875,-0.035925,8.335865,4.809183
7.011060,0.549316,-0.221252,-0.049617,-0.073647,8.316706,4.809183
7.026761,0.404358,-0.297546,-0.095393,-0.037722,8.318501,4.766672
7.042308,0.373840,-0.350952,-0.057246,-0.078437,8.301737,4.767271
7.057818,0.411987,-0.198364,0.041936,-0.077838,8.328680,4.772659
7.073351,0.267029,-0.213623,0.064824,-0.036524,8.310718,4.781042
7.088890,0.152588,-0.282288,0.095342,-0.112566,8.320896,4.786431
7.104717,0.228882,-0.274658,0.049565,-0.054487,8.329878,4.773258
7.120537,0.373840,-0.213623,0.026677,-0.016166,8.316107,4.790622
7.136450,0.457764,-0.144958,0.003789,-0.082029,8.322693,4.782239
7.153184,0.350952,-0.350952,-0.072505,-0.046703,8.325088,4.776851
7.175718,0.274658,-0.411987,-0.034358,-0.102986,8.332871,4.766672
7.191283,0.427246,-0.175476,0.141118,-0.053888,8.325088,4.773258
7.206756,0.350952,-0.389099,0.102971,-0.055684,8.321495,4.801998
7.222208,0.450134,-0.198364,0.125859,0.007185,8.309521,4.769666
7.237699,0.495911,-0.160217,0.118230,0.000599,8.307724,4.769666
7.253297,0.389099,-0.373840,-0.041987,-0.088017,8.350834,4.802597
7.268915,0.259399,-0.244141,0.041936,-0.091011,8.332273,4.792418
7.284523,0.518799,-0.267029,-0.019099,-0.077838,8.372989,4.748110
7.300160,0.358582,-0.320435,0.057195,-0.108375,8.331076,4.733740
7.315874,0.167847,-0.251770,0.102971,-0.077838,8.337063,4.747511
7.331596,0.312805,-0.175476,0.125859,-0.064666,8.351433,4.733740
7.347308,0.236511,-0.167847,0.011418,-0.056882,8.338860,4.779245
7.363083,0.503540,-0.244141,0.049565,0.000000,8.338860,4.750505
7.378637,0.503540,-0.312805,0.003789,-0.088017,8.314310,4.777449
7.394215,0.389099,-0.335693,-0.095393,-0.045505,8.316107,4.811578
7.409813,0.495911,-0.221252,0.148748,-0.060474,8.313113,4.791820
7.425302,0.305176,-0.198364,0.057195,-0.072449,8.351433,4.775653
7.440830,0.160217,-0.526428,0.041936,0.008383,8.338261,4.800202
7.456344,0.343323,-0.244141,-0.049617,-0.055085,8.328082,4.794214
7.471917,0.297546,-0.312805,0.003789,-0.056882,8.325686,4.773857
7.487448,0.473022,-0.267029,-0.064875,-0.091011,8.335865,4.791221
7.503111,0.305176,-0.251770,-0.072505,-0.094005,8.340056,4.738530
7.518726,0.198364,-0.183105,0.019048,-0.041913,8.349038,4.743320
7.534325,0.335693,-0.129700,0.026677,-0.074844,8.298742,4.760086
7.549962,0.274658,-0.228882,0.072454,-0.065863,8.318501,4.773857
7.565658,0.556946,-0.213623,0.034307,-0.050295,8.327483,4.760086
7.581320,0.373840,-0.366211,-0.095393,-0.077838,8.290360,4.779245
7.597175,0.282288,-0.343323,-0.041987,-0.047302,8.298742,4.819362
7.612804,0.396729,-0.396729,-0.095393,-0.065863,8.302335,4.804992
7.628393,0.312805,-0.312805,0.072454,-0.065264,8.305927,4.791820
7.643970,0.343323,-0.114441,0.087712,-0.043110,8.352631,4.781042
7.660029,0.396729,-0.190735,0.171636,-0.024549,8.313711,4.787029
7.675540,0.312805,-0.175476,0.072454,-0.037123,8.323292,4.788826
7.691085,0.305176,-0.312805,-0.011470,-0.011975,8.351433,4.770863
7.706790,0.434875,-0.373840,-0.064875,-0.089214,8.318501,4.772659
7.722566,0.457764,-0.312805,0.057195,-0.095801,8.332871,4.774456
7.738366,0.228882,-0.205994,0.278447,-0.035327,8.342452,4.754697
7.754206,0.244141,-0.274658,0.049565,-0.059277,8.328082,4.760086
7.770012,0.312805,-0.312805,0.080083,-0.062869,8.328680,4.773258
7.785735,0.282288,-0.221252,-0.080134,-0.021555,8.329279,4.764875
7.801352,0.411987,-0.312805,-0.049617,-0.064666,8.315508,4.796609
7.816974,0.404358,-0.312805,0.034307,-0.050295,8.337662,4.778647
7.832716,0.480652,-0.251770,0.041936,-0.063468,8.301138,4.772659
7.848365,0.358582,-0.205994,0.049565,-0.056283,8.332273,4.761882
7.864187,0.297546,-0.274658,0.049565,-0.031135,8.310119,4.766672
7.880035,0.396729,-0.328064,-0.003840,-0.087418,8.341254,4.762480
7.895842,0.267029,-0.328064,-0.072505,-0.059875,8.341853,4.765474
7.911937,0.427246,-0.244141,0.026677,-0.079036,8.337662,4.764277
7.927592,0.427246,-0.228882,-0.011470,-0.092807,8.292755,4.791820
7.943345,0.183105,-0.305176,0.019048,-0.034728,8.337063,4.760684
7.959078,0.236511,-0.457764,0.011418,-0.080832,8.324490,4.773258
7.974842,0.274658,-0.114441,-0.011470,-0.068258,8.351433,4.776252
7.990586,0.343323,-0.213623,0.019048,-0.055684,8.352631,4.795412
8.006118,0.381470,-0.335693,0.125859,-0.070054,8.299341,4.767869
8.021662,0.282288,-0.282288,-0.072505,-0.010778,8.312514,4.765474
8.037333,0.236511,-0.198364,0.011418,-0.044308,8.320298,4.788227
8.052921,0.389099,-0.221252,0.057195,-0.073048,8.299940,4.785233
8.068520,0.267029,-0.366211,0.011418,-0.098196,8.307724,4.788826
8.084270,0.495911,-0.259399,0.087712,-0.065863,8.319100,4.788227
8.099970,0.434875,-0.152588,0.049565,-0.082628,8.325088,4.790622
8.115695,0.366211,-0.183105,0.026677,-0.001796,8.331076,4.760684
8.131389,0.518799,-0.251770,-0.041987,-0.081431,8.322693,4.748709
8.147271,0.274658,-0.190735,0.072454,-0.047302,8.321495,4.778647
8.163168,0.198364,-0.244141,0.072454,-0.026345,8.314310,4.776252
8.178790,0.289917,-0.358582,0.087712,-0.030536,8.323891,4.736734
8.194429,0.366211,-0.221252,-0.026729,-0.028740,8.324490,4.761882
8.210050,0.267029,-0.274658,-0.087764,-0.130529,8.338860,4.791820
8.225687,0.228882,-0.175476,0.080083,-0.088017,8.309521,4.778647
8.241306,0.213623,-0.099182,-0.156428,-0.049697,8.345446,4.824751
8.256903,0.373840,-0.366211,-0.164058,-0.104782,8.343051,4.787029
8.272468,0.450134,-0.183105,-0.011470,-0.055684,8.312514,4.783437
8.288196,0.282288,-0.282288,0.026677,-0.081431,8.333470,4.778647
8.303954,0.328064,-0.343323,-0.072505,-0.053888,8.292156,4.769666
8.319684,0.350952,-0.167847,-0.072505,-0.049098,8.320298,4.762480
8.335401,0.312805,-0.129700,0.026677,-0.073048,8.347840,4.779844
8.351173,0.381470,-0.289917,0.026677,-0.055684,8.334069,4.784036
8.366940,0.350952,-0.167847,0.011418,-0.077838,8.317903,4.769666
8.382740,0.251770,-0.305176,0.011418,-0.094005,8.326285,4.796011
8.398590,0.411987,-0.328064,0.011418,-0.056882,8.283773,4.763678
8.414422,0.366211,-0.083923,-0.011470,-0.132924,8.325686,4.805591
8.429996,0.221252,-0.381470,0.064824,-0.026944,8.339458,4.756493
8.445928,0.488281,-0.267029,-0.064875,-0.067659,8.323891,4.775653
8.461764,0.282288,-0.320435,-0.064875,-0.022753,8.339458,4.793616
8.477395,0.427246,-0.236511,-0.049617,-0.042512,8.340056,4.799005
8.492983,0.221252,-0.167847,-0.003840,-0.072449,8.280780,4.822955
8.508566,0.305176,-0.167847,0.011418,-0.076641,8.338860,4.813375
8.524120,0.137329,-0.312805,0.019048,-0.028141,8.295749,4.822955
8.539731,0.442505,-0.251770,0.011418,-0.057480,8.304132,4.788826
8.555343,0.396729,-0.289917,-0.057246,-0.042512,8.337063,4.797208
8.571026,0.419617,-0.183105,0.011418,-0.077838,8.306526,4.780443
8.586646,0.366211,-0.289917,-0.026729,-0.047302,8.367001,4.764875
8.602268,0.289917,-0.297546,0.141118,-0.086819,8.340655,4.740326
8.617901,0.572205,-0.114441,-0.011470,-0.047900,8.343649,4.757092
8.633604,0.305176,-0.320435,0.072454,-0.062869,8.354427,4.747511
8.649298,0.396729,-0.419617,0.064824,-0.081431,8.341254,4.781042
8.665225,0.335693,-0.289917,0.049565,-0.070054,8.316107,4.758888
8.680895,0.343323,-0.175476,0.057195,-0.039518,8.356822,4.779844
8.696477,0.343323,-0.213623,0.064824,-0.062271,8.327483,4.772060
8.712131,0.282288,-0.244141,-0.019099,-0.048499,8.337662,4.775653
8.727765,0.350952,-0.328064,0.041936,-0.040715,8.310718,4.782838
8.743294,0.289917,-0.228882,-0.026729,-0.041913,8.334069,4.776851
8.758779,0.320435,-0.297546,0.026677,-0.039518,8.339458,4.771462
8.774253,0.404358,-0.381470,-0.057246,-0.098196,8.326285,4.754098
8.789746,0.343323,-0.144958,-0.003840,-0.037123,8.337063,4.774456
8.805212,0.320435,-0.366211,0.064824,-0.053888,8.343051,4.760086
8.820859,0.366211,-0.282288,-0.087764,-0.088017,8.351433,4.763678
8.836472,0.267029,-0.282288,-0.019099,-0.058678,8.332273,4.751703
8.852091,0.366211,-0.320435,0.102971,-0.093406,8.340056,4.748709
8.867803,0.480652,-0.129700,0.034307,-0.038919,8.313711,4.763079
8.883543,0.381470,-0.282288,0.110601,-0.019160,8.322693,4.746913
8.899178,0.381470,-0.259399,0.049565,-0.053289,8.307125,4.757690
8.914974,0.297546,-0.335693,0.003789,-0.040715,8.330477,4.757690
8.930609,0.228882,-0.297546,-0.041987,-0.031734,8.352032,4.779844
8.946183,0.366211,-0.343323,-0.011470,-0.120948,8.322693,4.774456
8.961804,0.404358,-0.289917,0.034307,-0.061073,8.346643,4.800801
8.977420,0.305176,-0.213623,0.034307,-0.079036,8.321495,4.795412
8.992938,0.312805,-0.030518,-0.003840,-0.015568,8.336464,4.761283
9.008543,0.259399,-0.122070,-0.034358,-0.071851,8.340655,4.786431
9.024107,0.267029,-0.236511,-0.095393,-0.085622,8.316706,4.804393
9.039647,0.366211,-0.335693,0.041936,-0.020358,8.344248,4.757690
9.055429,0.335693,-0.251770,0.102971,-0.076042,8.323891,4.774456
9.071207,0.335693,-0.244141,-0.034358,-0.060474,8.355624,4.793616
9.087012,0.251770,-0.282288,-0.041987,-0.025148,8.322094,4.787628
9.102849,0.411987,-0.129700,-0.072505,-0.070054,8.338261,4.788826
9.118689,0.350952,-0.251770,-0.019099,-0.108973,8.341853,4.796609
9.134467,0.457764,-0.236511,-0.003840,-0.036524,8.310718,4.757092
9.150172,0.457764,-0.335693,0.049565,-0.111967,8.340056,4.718771
9.168858,0.389099,-0.205994,0.064824,-0.073048,8.366402,4.747511
9.184724,0.259399,-0.305176,-0.011470,-0.046104,8.335267,4.746913
9.200464,0.305176,-0.175476,-0.041987,-0.079634,8.344847,4.743919
9.216179,0.289917,-0.335693,0.064824,-0.019759,8.302335,4.746314
9.232060,0.396729,-0.251770,-0.064875,-0.027543,8.364606,4.755295
9.247842,0.488281,-0.396729,0.072454,-0.053888,8.339458,4.768468
9.263433,0.488281,-0.267029,0.034307,-0.063468,8.347840,4.750505
9.279136,0.297546,-0.389099,0.003789,-0.061672,8.331076,4.784036
9.294775,0.312805,-0.274658,0.087712,-0.088017,8.317304,4.779844
9.310335,0.305176,-0.274658,0.148748,-0.075443,8.341254,4.794214
9.325851,0.396729,-0.175476,0.041936,-0.034728,8.344248,4.784635
9.341386,0.381470,-0.259399,0.072454,-0.062271,8.322693,4.784036
9.356914,0.350952,-0.152588,0.003789,-0.078437,8.342452,4.788227
9.372459,0.419617,-0.328064,-0.072505,-0.052690,8.323292,4.787029
9.388096,0.328064,-0.091553,-0.049617,-0.077838,8.354427,4.778647
9.403746,0.312805,-0.137329,-0.003840,-0.051493,8.357421,4.774456
9.419346,0.396729,-0.190735,0.095342,-0.082029,8.306526,4.768468
9.435029,0.160217,-0.244141,-0.103022,-0.083826,8.337662,4.763678
9.450745,0.427246,-0.205994,-0.057246,-0.100591,8.311316,4.814572
9.466453,0.297546,-0.259399,0.019048,-0.036524,8.315508,4.800801
9.482313,0.396729,-0.328064,0.011418,-0.029938,8.325686,4.752302
9.498090,0.389099,-0.076294,0.019048,-0.092807,8.334668,4.793616
9.513688,0.434875,-0.419617,0.072454,-0.026345,8.287366,4.778647
9.529360,0.251770,-0.373840,0.057195,-0.023950,8.312514,4.799005
9.545015,0.289917,-0.251770,0.064824,-0.017963,8.328680,4.774456
9.560530,0.320435,-0.289917,-0.019099,-0.046703,8.340655,4.778048
9.576059,0.442505,-0.297546,0.125859,-0.056283,8.331076,4.783437
9.591564,0.450134,-0.480652,0.019048,-0.103585,8.323891,4.761283
9.607097,0.274658,-0.198364,-0.072505,-0.034728,8.329878,4.782838
9.622717,0.274658,-0.175476,0.026677,-0.077838,8.350834,4.803794
9.638410,0.244141,-0.267029,0.011418,-0.071851,8.321495,4.771462
9.654021,0.297546,-0.328064,0.019048,-0.040117,8.339458,4.789424
9.670121,0.328064,-0.350952,0.019048,-0.065264,8.304730,4.793616
9.685928,0.328064,-0.312805,0.087712,-0.083227,8.309521,4.783437
9.701757,0.312805,-0.183105,0.072454,0.039518,8.301737,4.776252
9.717621,0.274658,-0.404358,-0.019099,-0.093406,8.333470,4.791221
9.733528,0.205994,-0.190735,0.041936,-0.034129,8.310718,4.797807
9.749437,0.404358,-0.442505,0.072454,-0.031135,8.322094,4.788826
9.766027,0.389099,-0.114441,0.125859,-0.073647,8.341853,4.786431
9.781915,0.434875,-0.373840,0.019048,-0.073048,8.317304,4.755295
9.797500,0.282288,-0.389099,0.095342,-0.076042,8.311915,4.774456
9.813171,0.396729,-0.312805,0.141118,-0.068258,8.351433,4.773857
9.828898,0.427246,-0.312805,0.049565,-0.039518,8.352631,4.752302
9.844456,0.358582,-0.328064,0.102971,-0.013173,8.336464,4.772659
9.860055,0.396729,-0.320435,0.095342,-0.028141,8.327483,4.758289
9.876407,0.480652,-0.320435,-0.041987,-0.083826,8.331675,4.749907
9.891997,0.358582,-0.328064,-0.095393,-0.028141,8.331675,4.747511
9.909134,0.205994,-0.289917,0.026677,-0.103585,8.347840,4.757690
9.924652,0.175476,0.007629,0.087712,-0.038919,8.323891,4.768468
9.940184,0.213623,-0.190735,-0.019099,-0.013771,8.328082,4.764277
9.955792,0.312805,-0.267029,-0.026729,-0.104782,8.327483,4.788826
9.971417,0.328064,-0.320435,-0.011470,-0.029938,8.346643,4.764277
9.987056,0.228882,-0.320435,-0.026729,-0.094603,8.285570,4.794214
10.002788,0.297546,-0.320435,0.087712,-0.101788,8.310718,4.803196
10.019309,0.358582,-0.328064,-0.019099,-0.015568,8.298742,4.789424
10.035019,0.526428,-0.343323,0.064824,-0.096998,8.325088,4.766073
10.050846,0.312805,-0.099182,0.034307,-0.016166,8.353828,4.781641
10.066572,0.396729,-0.274658,0.110601,-0.062869,8.322693,4.805591
10.082377,0.389099,-0.152588,0.034307,-0.056882,8.351433,4.776851
10.101325,0.350952,-0.312805,0.080083,-0.019759,8.346643,4.796011
10.117079,0.411987,-0.236511,0.057195,-0.064666,8.316107,4.761882
10.132832,0.442505,-0.152588,0.003789,-0.047900,8.342452,4.796011
10.148587,0.213623,-0.175476,-0.072505,-0.023950,8.337063,4.786431
10.164185,0.160217,-0.122070,0.087712,-0.090412,8.329279,4.791221
10.179885,0.343323,-0.312805,0.026677,-0.032932,8.316706,4.806190
10.195517,0.396729,-0.137329,0.003789,-0.021555,8.322693,4.796011
10.211053,0.335693,-0.289917,-0.118281,-0.045505,8.310718,4.791221
10.226569,0.450134,-0.335693,-0.064875,-0.074246,8.316706,4.834930
10.242052,0.419617,-0.244141,0.019048,-0.058678,8.309521,4.792418
10.257642,0.289917,-0.198364,-0.034358,-0.029938,8.342452,4.792418
10.273383,0.221252,-0.251770,0.194524,-0.082029,8.304730,4.778048
10.289068,0.305176,-0.152588,-0.019099,-0.051493,8.299940,4.784036
10.304810,0.465393,-0.267029,-0.064875,-0.052092,8.297545,4.790023
10.320511,0.419617,-0.183105,0.057195,-0.040117,8.315508,4.797208
10.336218,0.411987,-0.213623,-0.003840,-0.058678,8.321495,4.765474
10.351984,0.358582,-0.137329,-0.019099,-0.080233,8.342452,4.790622
10.375751,0.373840,-0.373840,0.026677,-0.057480,8.323292,4.781641
10.391290,0.259399,-0.137329,0.026677,-0.052690,8.322693,4.815171
10.406792,0.305176,-0.228882,0.087712,-0.044308,8.311316,4.808585
10.422414,0.389099,-0.305176,-0.011470,-0.033530,8.304730,4.801998
10.438015,0.274658,-0.244141,-0.148799,-0.052092,8.329279,4.813973
10.453636,0.473022,-0.190735,0.049565,-0.082628,8.301737,4.813973
10.469299,0.411987,-0.343323,0.110601,-0.111368,8.315508,4.809782
10.488028,0.373840,-0.175476,0.125859,-0.032333,8.309521,4.790023
10.503719,0.473022,-0.190735,0.011418,-0.014370,8.333470,4.763079
10.519385,0.282288,-0.160217,0.064824,-0.046703,8.357421,4.755894
10.535376,0.556946,-0.366211,0.049565,-0.035925,8.331076,4.761882
10.551064,0.480652,-0.404358,0.019048,-0.048499,8.334069,4.755295
10.566712,0.213623,-0.457764,0.064824,-0.076641,8.349038,4.776851
10.582422,0.335693,-0.228882,-0.003840,-0.107776,8.340056,4.768468
10.597971,0.221252,-0.183105,0.095342,-0.047900,8.308323,4.748709
10.613588,0.236511,-0.282288,-0.041987,-0.015568,8.340655,4.784635
10.629208,0.282288,-0.221252,0.072454,-0.059277,8.316706,4.778647
10.644754,0.228882,-0.381470,0.057195,-0.058678,8.327483,4.802597
10.660277,0.457764,-0.259399,-0.019099,-0.077838,8.327483,4.780443
10.675832,0.244141,-0.305176,-0.095393,-0.048499,8.343051,4.773258
10.691432,0.312805,-0.312805,0.019048,-0.100591,8.339458,4.781641
10.709798,0.320435,-0.419617,0.102971,-0.079036,8.328680,4.807387
10.725345,0.389099,-0.129700,0.087712,-0.088017,8.329279,4.772060
10.740880,0.312805,-0.183105,0.102971,-0.026944,8.340655,4.785832
10.756532,0.358582,-0.221252,0.064824,-0.062271,8.328082,4.772060
10.772167,0.297546,-0.267029,0.026677,-0.019160,8.341853,4.784036
10.787804,0.312805,-0.396729,0.011418,-0.073647,8.343051,4.766073
10.803534,0.358582,-0.305176,0.019048,-0.036524,8.326884,4.787029
10.819215,0.320435,-0.221252,0.026677,-0.056283,8.332871,4.778048
10.834839,0.190735,-0.267029,0.080083,-0.113763,8.321495,4.807387
10.850523,0.305176,-0.335693,-0.087764,-0.054487,8.329279,4.804992
10.866304,0.427246,-0.205994,0.003789,-0.056283,8.310718,4.778048
10.881875,0.534058,-0.221252,0.041936,-0.087418,8.363408,4.778647
10.897555,0.259399,-0.389099,-0.125911,-0.074844,8.320896,4.792418
10.913286,0.450134,-0.259399,-0.072505,-0.089214,8.334069,4.734938
10.929064,0.320435,-0.137329,0.064824,-0.074246,8.358020,4.763079
10.944682,0.381470,-0.152588,0.080083,-0.016765,8.316107,4.754697
10.960203,0.473022,-0.183105,0.041936,-0.098196,8.353230,4.772060
10.975686,0.373840,-0.221252,0.003789,-0.038919,8.334668,4.794214
10.991210,0.473022,-0.350952,-0.026729,-0.083826,8.300539,4.775054
11.006773,0.228882,-0.297546,0.019048,-0.089214,8.325088,4.787029
11.022428,0.328064,-0.228882,-0.019099,-0.029339,8.307125,4.761882
11.038046,0.312805,-0.183105,0.057195,-0.101788,8.315508,4.754098
11.053716,0.282288,-0.251770,0.064824,-0.010179,8.309521,4.784036
11.069450,0.282288,-0.167847,0.034307,-0.058079,8.308323,4.762480
11.085153,0.343323,-0.007629,0.133489,-0.053888,8.313711,4.776851
11.100861,0.335693,-0.404358,0.072454,-0.061672,8.319699,4.799603
11.116663,0.244141,-0.183105,-0.019099,-0.007185,8.302934,4.782239
11.132321,0.228882,-0.335693,-0.003840,-0.088616,8.328680,4.775653
11.147957,0.328064,-0.328064,0.164006,-0.105980,8.309521,4.781641
11.163602,0.396729,-0.076294,0.026677,-0.049697,8.338261,4.767869
11.179187,0.373840,-0.320435,0.102971,-0.052690,8.345446,4.779245
11.194709,0.205994,-0.198364,0.110601,-0.052092,8.315508,4.764277
11.210204,0.373840,-0.236511,-0.057246,-0.008383,8.344248,4.778048
11.225753,0.350952,-0.350952,-0.041987,-0.071851,8.359816,4.775054
11.241291,0.427246,-0.312805,0.041936,-0.056283,8.320896,4.791221
11.256959,0.366211,-0.289917,0.064824,-0.081431,8.341254,4.756493
11.272679,0.236511,-0.274658,0.202153,-0.030536,8.319100,4.783437
11.288403,0.404358,-0.297546,0.011418,-0.053888,8.321495,4.772060
11.304150,0.389099,-0.259399,0.019048,-0.077838,8.345446,4.770264
11.320070,0.305176,-0.213623,-0.019099,-0.096998,8.341254,4.784036
11.335874,0.320435,-0.274658,-0.057246,-0.051493,8.307125,4.760684
11.351598,0.244141,-0.358582,-0.019099,-0.082628,8.331076,4.785832
11.367286,0.312805,-0.259399,-0.003840,-0.023351,8.310718,4.769067
11.383051,0.297546,-0.236511,0.064824,-0.020358,8.329878,4.779245
11.398581,0.274658,-0.244141,-0.003840,-0.009580,8.325088,4.785233
11.414154,0.450134,-0.297546,-0.125911,-0.070653,8.317304,4.799005
11.429684,0.267029,-0.198364,-0.003840,-0.083826,8.355624,4.793017
11.445206,0.419617,-0.274658,-0.171687,-0.034728,8.338860,4.777449
11.460704,0.648499,-0.205994,-0.019099,-0.088017,8.328680,4.784635
11.476239,0.236511,-0.366211,0.011418,-0.070653,8.326884,4.772060
11.491880,0.343323,-0.328064,-0.049617,-0.046104,8.325686,4.806788
11.507748,0.366211,-0.274658,0.011418,-0.053888,8.338860,4.811578
11.523615,0.251770,-0.289917,0.019048,-0.042512,8.337063,4.781641
11.539527,0.541687,-0.251770,0.041936,-0.095801,8.316107,4.781641
11.557406,0.381470,-0.381470,0.026677,-0.037722,8.325686,4.769067
11.573854,0.312805,-0.350952,0.026677,-0.050894,8.323292,4.788227
11.589476,0.305176,-0.152588,0.003789,-0.111368,8.322693,4.798406
11.605067,0.259399,-0.267029,-0.026729,-0.044308,8.322693,4.785233
11.620733,0.335693,-0.366211,-0.003840,-0.104183,8.341254,4.781641
11.636451,0.549316,-0.251770,-0.034358,-0.023351,8.331076,4.758289
11.652125,0.396729,-0.175476,-0.026729,-0.061672,8.357421,4.776851
11.667734,0.442505,-0.289917,0.072454,-0.077838,8.318501,4.759487
11.683419,0.297546,-0.122070,0.148748,-0.079036,8.330477,4.742123
11.699013,0.244141,-0.312805,0.003789,-0.045505,8.322693,4.774456
11.714764,0.297546,-0.312805,-0.087764,-0.050295,8.316107,4.764875
11.730428,0.450134,-0.175476,0.064824,-0.059875,8.320896,4.790622
11.745960,0.411987,-0.305176,-0.064875,-0.062869,8.317903,4.779844
11.761445,0.366211,-0.305176,-0.019099,-0.052092,8.305927,4.785233
11.776959,0.282288,-0.320435,0.049565,-0.068857,8.325686,4.784635
11.792467,0.396729,-0.251770,0.064824,-0.074246,8.303533,4.766672
11.808021,0.312805,-0.213623,0.049565,-0.031734,8.299940,4.774456
11.823658,0.198364,-0.267029,0.049565,-0.031135,8.319699,4.795412
11.839407,0.366211,-0.251770,0.019048,-0.052690,8.289163,4.803196
11.855007,0.480652,-0.236511,-0.049617,-0.034129,8.334668,4.788826
11.870786,0.350952,-0.228882,-0.057246,-0.082029,8.308323,4.825350
11.886532,0.358582,-0.259399,0.118230,-0.085023,8.348439,4.788227
11.902204,0.190735,-0.312805,0.011418,-0.049697,8.356822,4.788227
11.917855,0.396729,-0.129700,0.049565,-0.092208,8.330477,4.774456
11.933600,0.244141,-0.137329,0.019048,-0.037123,8.356223,4.775653
11.949144,0.312805,-0.213623,-0.003840,-0.051493,8.361013,4.758888
11.964742,0.427246,-0.282288,-0.034358,-0.036524,8.340056,4.782239
11.980333,0.343323,-0.312805,0.019048,-0.027543,8.330477,4.779245
11.995848,0.198364,-0.373840,-0.057246,-0.077239,8.324490,4.772659
12.011343,0.320435,-0.228882,0.072454,-0.057480,8.327483,4.775653
12.026848,0.267029,-0.213623,0.049565,-0.045505,8.300539,4.780443
12.042337,0.396729,-0.236511,-0.003840,-0.068258,8.310119,4.782239
12.057979,0.389099,-0.190735,0.095342,-0.053289,8.290958,4.767869
12.073681,0.358582,-0.389099,-0.019099,-0.076641,8.316706,4.796609
12.089377,0.442505,-0.312805,0.034307,-0.007784,8.298742,4.775653
12.105121,0.320435,-0.328064,-0.141169,-0.077239,8.331675,4.796011
12.120879,0.503540,-0.267029,-0.080134,-0.083826,8.296947,4.801400
12.136704,0.442505,-0.183105,-0.057246,-0.104782,8.292156,4.827146
12.152585,0.404358,-0.213623,0.080083,-0.045505,8.298144,4.809782
12.168248,0.312805,-0.160217,-0.057246,-0.018561,8.337063,4.813973
12.188720,0.366211,-0.244141,0.034307,0.138911,8.330477,4.760684
12.204630,0.259399,-0.404358,-0.011470,-0.070653,8.324490,4.785233
12.220499,0.366211,-0.244141,-0.103022,-0.071851,8.317304,4.788227
12.236324,0.312805,-0.305176,-0.019099,-0.045505,8.310718,4.760086
12.252117,0.358582,-0.244141,0.011418,-0.059875,8.314310,4.759487
12.268042,0.228882,-0.305176,-0.003840,-0.047302,8.328082,4.785832
12.283703,0.335693,-0.312805,0.125859,-0.052690,8.347241,4.754697
12.299309,0.411987,-0.289917,-0.080134,-0.029339,8.341254,4.781641
12.315388,0.350952,-0.297546,0.072454,-0.057480,8.320298,4.772060
12.330998,0.328064,-0.236511,0.102971,-0.039518,8.292156,4.767869
12.346743,0.457764,-0.228882,0.194524,-0.043110,8.302335,4.762480
12.362501,0.366211,-0.251770,0.049565,-0.033530,8.336464,4.787628
12.378314,0.274658,-0.061035,-0.103022,-0.079634,8.317903,4.794813
12.394179,0.389099,-0.122070,-0.011470,-0.067061,8.345446,4.790023
12.409726,0.404358,-0.236511,-0.019099,-0.080832,8.339458,4.763079
12.425250,0.411987,-0.228882,-0.003840,-0.067061,8.323292,4.761882
12.443429,0.297546,-0.221252,0.034307,-0.062271,8.327483,4.760086
12.458992,0.274658,-0.122070,-0.049617,-0.074246,8.329878,4.754098
12.474721,0.274658,-0.213623,-0.026729,-0.061672,8.301138,4.781042
12.490381,0.350952,-0.259399,0.034307,-0.066462,8.327483,4.807387
12.506099,0.465393,-0.244141,-0.064875,-0.046104,8.317903,4.801400
12.521919,0.404358,-0.175476,-0.026729,-0.052690,8.315508,4.776252
12.537696,0.267029,-0.152588,0.133489,-0.077838,8.317903,4.792418
12.553551,0.366211,-0.083923,0.049565,-0.022753,8.302934,4.782838
12.571875,0.419617,-0.205994,0.179265,-0.042512,8.428673,4.802597
12.587672,0.320435,-0.259399,0.064824,-0.021555,8.332871,4.786431
12.603476,0.228882,-0.198364,-0.003840,-0.028740,8.338261,4.789424
12.619181,0.396729,-0.183105,0.003789,-0.073048,8.322094,4.766073
12.634998,0.213623,-0.350952,-0.049617,-0.065264,8.337662,4.766672
12.650615,0.473022,-0.274658,-0.049617,-0.080832,8.317304,4.755295
12.666253,0.152588,-0.358582,0.133489,-0.061073,8.353230,4.775653
12.681936,0.358582,-0.198364,-0.003840,0.128134,8.344248,4.760086
12.697470,0.465393,-0.289917,-0.003840,-0.139510,8.348439,4.767869
12.713019,0.236511,-0.244141,0.003789,-0.150886,8.349038,4.774456
12.728536,0.328064,-0.221252,-0.072505,-0.067659,8.340655,4.773857
12.744075,0.389099,-0.297546,0.026677,-0.056283,8.308323,4.771462
12.759612,0.297546,-0.320435,0.003789,-0.026345,8.343051,4.758888
12.775362,0.404358,-0.282288,0.011418,-0.073647,8.307724,4.758888
12.791128,0.289917,-0.289917,0.041936,-0.020956,8.330477,4.778647
12.806840,0.282288,-0.320435,0.003789,-0.054487,8.300539,4.788227
12.822603,0.221252,-0.274658,-0.019099,-0.100591,8.317304,4.785832
12.838373,0.381470,-0.434875,-0.041987,-0.022154,8.357421,4.748709
12.854144,0.450134,-0.328064,0.049565,-0.079634,8.316706,4.757690
12.869862,0.343323,-0.274658,0.057195,-0.067659,8.304132,4.764277
12.885554,0.244141,-0.205994,-0.057246,-0.037722,8.324490,4.781042
12.901178,0.343323,-0.183105,0.118230,-0.094005,8.300539,4.788826
12.916771,0.404358,-0.183105,0.041936,-0.039518,8.351433,4.792418
12.932406,0.282288,-0.236511,0.011418,-0.073647,8.308323,4.796011
12.948072,0.389099,-0.335693,-0.003840,-0.091011,8.307125,4.789424
12.963655,0.236511,-0.297546,-0.041987,0.012574,8.326285,4.784036
12.979258,0.343323,-0.328064,-0.057246,-0.069456,8.331076,4.778048
12.994836,0.228882,-0.343323,0.080083,-0.033530,8.316107,4.813375
13.010365,0.198364,-0.328064,0.049565,-0.065264,8.331675,4.777449
13.025919,0.320435,-0.389099,-0.003840,-0.084424,8.343649,4.790023
13.041564,0.450134,-0.137329,0.026677,-0.080832,8.316706,4.766672
13.057211,0.419617,-0.320435,0.118230,-0.019160,8.292755,4.757690
13.072954,0.312805,-0.389099,0.019048,-0.042512,8.338860,4.772060
13.088752,0.213623,-0.267029,-0.133540,-0.044907,8.326285,4.785233
13.104541,0.267029,-0.236511,-0.003840,-0.049098,8.328680,4.824751
13.120299,0.572205,-0.343323,0.133489,-0.089813,8.337063,4.813375
13.136103,0.358582,-0.167847,0.072454,-0.050894,8.320896,4.787628
13.151858,0.381470,-0.205994,-0.041987,-0.044907,8.336464,4.777449
13.167402,0.312805,-0.312805,-0.118281,-0.068857,8.336464,4.750505
13.182983,0.297546,-0.160217,0.034307,-0.040117,8.345446,4.781641
13.198665,0.358582,-0.213623,-0.034358,-0.065264,8.338860,4.773258
13.214290,0.457764,-0.213623,0.026677,-0.101788,8.298144,4.775054
13.229882,0.251770,-0.297546,0.072454,-0.025148,8.313711,4.777449
13.245399,0.289917,-0.251770,0.080083,-0.028141,8.318501,4.738530
13.260906,0.335693,-0.213623,0.034307,-0.022154,8.360415,4.767869
13.276448,0.350952,-0.175476,0.049565,-0.028740,8.326884,4.758888
13.292064,0.343323,-0.213623,0.087712,-0.061073,8.314310,4.740925
13.307743,0.358582,-0.411987,0.057195,-0.058678,8.320896,4.763678
13.323356,0.427246,-0.259399,-0.019099,-0.038320,8.323292,4.760684
13.339053,0.244141,-0.236511,0.102971,-0.059875,8.321495,4.773258
13.354839,0.244141,-0.236511,0.019048,-0.067659,8.364606,4.789424
13.370567,0.511169,-0.205994,0.003789,-0.096400,8.329279,4.767271
13.386236,0.442505,-0.282288,0.011418,-0.076042,8.313113,4.779245
13.402006,0.343323,-0.289917,0.011418,-0.095202,8.319100,4.773857
13.417569,0.282288,-0.305176,-0.034358,-0.065264,8.314310,4.800801
13.433166,0.251770,-0.152588,-0.011470,-0.071851,8.330477,4.791221
13.448827,0.366211,-0.267029,0.064824,-0.028740,8.325088,4.793616
13.464370,0.534058,-0.328064,0.102971,-0.033530,8.310119,4.760684
13.479897,0.343323,-0.244141,0.080083,-0.067061,8.313113,4.789424
13.495421,0.183105,-0.465393,-0.026729,-0.083227,8.310718,4.789424
13.510961,0.297546,-0.305176,0.057195,-0.061073,8.337063,4.775054
13.526687,0.251770,-0.320435,-0.072505,-0.052690,8.341853,4.792418
13.542509,0.312805,-0.289917,-0.041987,-0.037123,8.308323,4.809183
13.558317,0.411987,-0.205994,-0.057246,0.003593,8.295749,4.804393
13.574091,0.396729,-0.389099,-0.019099,-0.054487,8.305927,4.813375
13.589798,0.282288,-0.167847,0.133489,-0.043709,8.325088,4.824751
13.605464,0.442505,-0.312805,-0.057246,-0.071252,8.327483,4.799603
13.621095,0.152588,-0.312805,-0.103022,-0.089813,8.363408,4.791221
13.636671,0.381470,-0.328064,0.034307,-0.080832,8.313711,4.747511
13.652344,0.381470,-0.106812,0.034307,-0.025746,8.320896,4.755295
13.667908,0.320435,-0.381470,-0.011470,-0.038919,8.302335,4.782239
13.683639,0.274658,-0.251770,-0.125911,-0.034129,8.289163,4.794214
13.699213,0.335693,-0.305176,-0.041987,-0.103585,8.333470,4.804992
13.714757,0.389099,-0.335693,0.133489,-0.013173,8.320298,4.796011
13.730350,0.526428,-0.328064,0.095342,-0.065863,8.327483,4.758888
13.745845,0.442505,-0.373840,0.102971,-0.053888,8.339458,4.761283
13.761369,0.358582,-0.267029,-0.118281,-0.036524,8.316706,4.760684
13.776893,0.343323,-0.328064,0.011418,-0.103585,8.334069,4.784036
13.792547,0.267029,-0.305176,-0.049617,-0.033530,8.344847,4.807986
13.808140,0.358582,-0.198364,0.011418,-0.065863,8.320298,4.797208
13.823903,0.534058,-0.144958,0.064824,-0.102986,8.317304,4.801400
13.844807,0.366211,-0.259399,0.049565,-0.045505,8.343051,4.778647
13.860322,0.251770,-0.297546,0.034307,-0.031135,8.301138,4.762480
13.875878,0.221252,-0.236511,-0.064875,-0.088616,8.332273,4.777449
13.891586,0.205994,-0.335693,-0.041987,-0.026944,8.349038,4.791820
13.907230,0.305176,-0.434875,0.003789,-0.038320,8.307125,4.772060
13.922918,0.350952,-0.297546,0.019048,-0.081431,8.339458,4.772060
13.938625,0.267029,-0.236511,-0.026729,-0.052092,8.328680,4.779245
13.954369,0.328064,-0.289917,-0.026729,-0.082029,8.307724,4.793017
13.970091,0.198364,-0.183105,0.095342,-0.069456,8.329878,4.804393
13.985903,0.328064,-0.183105,0.019048,-0.032932,8.309521,4.748709
14.001546,0.457764,-0.328064,0.095342,-0.046703,8.316706,4.758289
14.017146,0.305176,-0.282288,0.095342,-0.082628,8.350834,4.760086
14.032845,0.488281,-0.244141,0.049565,-0.073048,8.308922,4.784036
14.048383,0.244141,-0.244141,0.049565,-0.050295,8.337063,4.769666
14.063897,0.396729,-0.373840,-0.049617,-0.061672,8.353828,4.803196
14.079412,0.488281,-0.129700,-0.064875,-0.098196,8.315508,4.783437
14.094954,0.419617,-0.289917,-0.019099,-0.038320,8.353828,4.776252
14.111195,0.320435,-0.205994,-0.019099,-0.078437,8.322094,4.757092
14.127251,0.350952,-0.099182,0.087712,-0.065264,8.316107,4.773857
14.143415,0.267029,-0.221252,0.072454,-0.078437,8.384365,4.775653
14.159287,0.350952,-0.198364,0.011418,-0.068258,8.349637,4.754098
14.175097,0.427246,-0.297546,0.026677,-0.055085,8.330477,4.709790
14.191016,0.358582,-0.198364,0.080083,-0.150886,8.358020,4.760086
14.206750,0.259399,-0.289917,0.072454,-0.042512,8.324490,4.728352
14.222609,0.213623,-0.282288,-0.064875,-0.050894,8.344248,4.769067
14.238492,0.183105,-0.312805,0.057195,-0.073647,8.365205,4.769666
14.255221,0.488281,-0.061035,0.118230,-0.061672,8.320298,4.793017
14.271235,0.495911,-0.198364,0.019048,-0.040715,8.308323,4.798406
14.287032,0.320435,-0.320435,0.003789,-0.018561,8.331675,4.784635
14.302901,0.350952,-0.366211,-0.003840,-0.041314,8.332871,4.766672
14.318545,0.427246,-0.152588,0.011418,-0.072449,8.343649,4.800202
14.334136,0.366211,-0.259399,0.011418,-0.027543,8.333470,4.772659
14.349753,0.320435,-0.358582,0.156377,-0.080233,8.309521,4.775653
14.365332,0.244141,-0.267029,-0.064875,-0.070054,8.332871,4.769666
14.380894,0.297546,-0.152588,-0.072505,-0.080233,8.344847,4.741524
14.396389,0.297546,-0.137329,-0.080134,-0.071252,8.372390,4.783437
14.411877,0.350952,-0.335693,-0.087764,0.001198,8.336464,4.778647
14.427408,0.526428,-0.366211,0.034307,-0.085023,8.305927,4.766073
14.443777,0.450134,-0.213623,0.080083,-0.062271,8.339458,4.772659
14.459842,0.267029,-0.251770,0.057195,-0.036524,8.283773,4.786431
14.475920,0.297546,-0.289917,0.110601,-0.086819,8.281978,4.787628
14.491811,0.289917,-0.373840,0.041936,-0.055684,8.338261,4.831936
14.507694,0.328064,-0.305176,-0.041987,-0.067061,8.304132,4.786431
14.523487,0.457764,-0.205994,0.019048,-0.036524,8.310718,4.818165
14.539091,0.228882,-0.274658,0.003789,-0.016765,8.284372,4.782239
14.554939,0.373840,-0.267029,0.102971,-0.046104,8.274793,4.775653
14.570718,0.274658,-0.274658,0.148748,-0.061672,8.341853,4.800801
14.586570,0.213623,-0.221252,0.034307,-0.063468,8.345446,4.797807
14.602152,0.358582,-0.244141,-0.011470,-0.058678,8.336464,4.745117
14.617754,0.343323,-0.328064,0.026677,-0.049697,8.350236,4.743320
14.633359,0.366211,-0.221252,0.011418,-0.050295,8.343051,4.758289
14.648895,0.221252,-0.267029,-0.087764,-0.099992,8.336464,4.730746
14.664422,0.183105,-0.282288,-0.026729,-0.082628,8.353230,4.761882
14.679955,0.221252,-0.205994,0.019048,-0.038320,8.314310,4.761882
14.695496,0.450134,-0.305176,0.202153,-0.055085,8.338860,4.757690
14.711051,0.411987,-0.167847,0.003789,-0.071252,8.349038,4.776252
14.726784,0.450134,-0.228882,-0.034358,-0.040715,8.329878,4.743919
14.742433,0.251770,-0.099182,0.019048,-0.120350,8.344248,4.754098
14.760295,0.267029,-0.267029,0.019048,-0.035925,8.349038,4.790622
14.776014,0.480652,-0.297546,-0.057246,-0.095202,8.308922,4.770264
14.791682,0.526428,-0.160217,0.087712,-0.082628,8.314310,4.810381
14.807293,0.320435,-0.175476,0.072454,-0.016765,8.321495,4.779245
14.822996,0.267029,-0.175476,-0.087764,-0.043709,8.304730,4.775054
14.838811,0.228882,-0.190735,0.019048,0.038919,8.336464,4.795412
14.854578,0.328064,-0.259399,-0.072505,-0.143102,8.307125,4.812776
14.870641,0.419617,-0.251770,0.080083,-0.027543,8.305329,4.794214
14.886459,0.297546,-0.221252,0.080083,-0.080233,8.299940,4.821158
14.902080,0.419617,-0.282288,-0.034358,-0.080233,8.294552,4.788227
14.917688,0.160217,-0.221252,0.026677,-0.048499,8.289762,4.749907
14.933428,0.289917,-0.343323,0.064824,-0.068258,8.362210,4.758888
14.948996,0.297546,-0.396729,0.026677,-0.016765,8.333470,4.789424
14.964543,0.488281,-0.297546,-0.072505,-0.045505,8.302335,4.777449
14.980044,0.366211,-0.244141,0.125859,-0.089214,8.344847,4.779844
14.995547,0.244141,-0.190735,0.064824,-0.024549,8.342452,4.757690
15.011066,0.144958,-0.205994,-0.057246,-0.049098,8.340655,4.769067
15.026673,0.305176,-0.328064,0.019048,-0.058079,8.316107,4.816369
15.042340,0.427246,-0.343323,-0.057246,-0.082628,8.311915,4.790622
15.058073,0.465393,-0.282288,-0.118281,-0.058079,8.335865,4.776851
15.073988,0.434875,-0.236511,-0.019099,-0.088616,8.331675,4.775054
15.089832,0.267029,-0.259399,-0.019099,-0.029339,8.292755,4.773857
15.105648,0.213623,-0.282288,0.011418,-0.056283,8.332871,4.824751
15.123130,0.450134,-0.259399,0.019048,-0.079036,8.343649,4.790622
15.139018,0.404358,-0.144958,0.102971,-0.039518,8.334668,4.791820
15.154742,0.488281,-0.198364,0.011418,-0.065264,8.322693,4.785832
15.170566,0.450134,-0.251770,-0.019099,-0.055085,8.309521,4.769067
15.186289,0.251770,-0.289917,-0.041987,-0.033530,8.322693,4.728352
15.201861,0.282288,-0.244141,0.034307,-0.065264,8.344847,4.805591
15.217585,0.396729,-0.274658,0.072454,-0.090412,8.347840,4.768468
15.233224,0.419617,-0.358582,0.125859,-0.079036,8.301737,4.796609
15.248797,0.450134,-0.289917,-0.003840,-0.082628,8.310718,4.771462
15.264339,0.282288,-0.259399,-0.080134,0.000000,8.286768,4.788826
15.279846,0.289917,-0.289917,-0.019099,-0.074844,8.313113,4.809782
15.295346,0.396729,-0.244141,0.072454,-0.061073,8.317304,4.782838
15.310878,0.289917,-0.373840,0.049565,-0.040715,8.310119,4.809782
15.326498,0.205994,-0.312805,0.034307,-0.123344,8.308922,4.769067
15.342091,0.152588,-0.320435,-0.003840,-0.042512,8.337662,4.757092
15.357711,0.228882,-0.335693,-0.026729,-0.065264,8.314310,4.739728
15.373375,0.396729,-0.190735,0.110601,-0.061672,8.360415,4.729549
15.389046,0.282288,-0.251770,0.011418,0.017963,8.340655,4.727753
15.404708,0.282288,-0.183105,0.034307,-0.098196,8.328082,4.769067
15.420453,0.320435,-0.251770,0.034307,-0.056882,8.328680,4.772060
15.436132,0.373840,-0.282288,-0.011470,-0.073647,8.302335,4.733740
15.451837,0.274658,-0.328064,-0.057246,-0.108375,8.317304,4.763079
15.467448,0.350952,-0.289917,0.026677,-0.032932,8.333470,4.736135
15.482959,0.404358,-0.144958,-0.011470,-0.100591,8.328082,4.759487
15.498470,0.465393,-0.190735,0.041936,-0.051493,8.339458,4.775653
15.513979,0.297546,-0.320435,0.034307,-0.089214,8.345446,4.748709
15.529528,0.259399,-0.251770,0.064824,-0.044308,8.335267,4.768468
15.545061,0.289917,-0.205994,0.026677,-0.031135,8.343051,4.784635
15.560780,0.205994,-0.228882,-0.064875,-0.108375,8.319699,4.787628
15.576442,0.167847,-0.328064,-0.019099,-0.039518,8.314310,4.796011
15.592065,0.267029,-0.144958,0.072454,-0.067061,8.349038,4.771462
15.607762,0.350952,-0.282288,-0.072505,-0.058079,8.327483,4.769067
15.623530,0.259399,-0.244141,0.003789,-0.047302,8.330477,4.770863
15.639246,0.244141,-0.175476,0.179265,-0.079036,8.322094,4.800801
15.654872,0.282288,-0.228882,0.186895,-0.017963,8.319100,4.792418
15.670476,0.358582,-0.221252,0.202153,-0.041913,8.332871,4.797208
15.686212,0.297546,-0.129700,-0.095393,-0.073647,8.345446,4.765474
15.702008,0.335693,-0.267029,0.026677,0.013173,8.341853,4.753499
15.717764,0.205994,-0.350952,0.095342,-0.154479,8.341853,4.756493
15.733481,0.350952,-0.297546,0.011418,0.006586,8.328082,4.748110
15.749007,0.251770,-0.259399,-0.072505,-0.079634,8.329279,4.766073
15.764514,0.328064,-0.381470,0.041936,-0.082029,8.308922,4.801998
15.780090,0.244141,-0.328064,0.011418,-0.045505,8.315508,4.785233
15.795603,0.282288,-0.312805,-0.057246,-0.107177,8.311316,4.800801
15.811169,0.366211,-0.183105,0.057195,-0.064666,8.321495,4.823554
15.826864,0.457764,-0.228882,0.102971,-0.074844,8.334668,4.812776
15.842523,0.411987,-0.129700,0.019048,-0.041314,8.314909,4.792418
15.858217,0.427246,-0.160217,-0.003840,-0.010778,8.340056,4.782838
15.873956,0.312805,-0.205994,-0.141169,-0.071851,8.311316,4.803196
15.889777,0.366211,-0.236511,-0.019099,-0.031734,8.329279,4.782838
15.905701,0.411987,-0.144958,0.011418,-0.058079,8.329878,4.755295
15.921438,0.396729,-0.228882,0.041936,-0.070653,8.316107,4.772060
15.937145,0.267029,-0.335693,0.118230,-0.022154,8.339458,4.764875
15.952852,0.358582,-0.282288,-0.034358,-0.059277,8.325088,4.758289
15.968812,0.373840,-0.396729,0.003789,-0.098196,8.332273,4.767271
15.984540,0.312805,-0.236511,0.026677,-0.062869,8.329878,4.750505
16.000157,0.228882,-0.160217,-0.011470,-0.082628,8.333470,4.772060
16.015691,0.335693,-0.198364,-0.041987,-0.039518,8.371791,4.782838
16.031214,0.350952,-0.289917,0.011418,-0.105381,8.359217,4.767869
16.046728,0.373840,-0.205994,0.064824,-0.053888,8.358618,4.793017
16.062244,0.251770,-0.274658,-0.003840,-0.033530,8.326884,4.795412
16.077882,0.259399,-0.106812,0.102971,-0.029938,8.321495,4.797208
16.093514,0.358582,-0.251770,0.034307,0.005988,8.323292,4.772060
16.109090,0.320435,-0.251770,-0.064875,-0.045505,8.296947,4.773857
16.124754,0.289917,-0.244141,-0.041987,-0.037123,8.295150,4.823554
16.140453,0.312805,-0.328064,0.102971,-0.095801,8.352631,4.817566
16.156158,0.541687,-0.312805,-0.057246,-0.040715,8.284372,4.772659
16.171790,0.320435,-0.396729,0.064824,-0.076042,8.327483,4.824751
16.187547,0.198364,-0.267029,-0.064875,-0.045505,8.318501,4.792418
16.203123,0.396729,-0.404358,-0.087764,-0.013771,8.315508,4.781042
16.218729,0.358582,-0.297546,-0.064875,-0.119152,8.341254,4.813375
16.234393,0.335693,-0.213623,0.011418,-0.061073,8.317304,4.794813
16.250012,0.328064,-0.129700,-0.003840,-0.047302,8.307724,4.797208
16.265675,0.350952,-0.114441,0.102971,-0.109572,8.332871,4.826547
16.281214,0.167847,-0.244141,0.019048,-0.012574,8.316706,4.780443
16.296718,0.427246,-0.213623,0.011418,-0.101190,8.279583,4.778647
16.312202,0.480652,-0.328064,0.034307,-0.077838,8.328082,4.782239
16.327886,0.625610,-0.228882,-0.003840,-0.023950,8.258027,4.767869
16.343549,0.350952,-0.236511,-0.026729,-0.076042,8.308922,4.793616
16.359153,0.465393,-0.175476,0.133489,-0.070653,8.314909,4.810381
16.374773,0.335693,-0.320435,0.072454,-0.040117,8.304132,4.791820
16.390464,0.488281,-0.236511,0.080083,-0.055684,8.357421,4.806788
16.406147,0.419617,-0.167847,0.118230,-0.036524,8.301138,4.754098
16.421851,0.335693,-0.267029,-0.041987,-0.022753,8.332273,4.791820
16.437601,0.320435,-0.236511,-0.011470,-0.077239,8.331675,4.794214
16.453193,0.389099,-0.350952,-0.080134,-0.077838,8.326884,4.787628
16.468813,0.312805,-0.030518,-0.164058,-0.083826,8.323292,4.789424
16.484471,0.373840,-0.259399,0.095342,-0.101190,8.343051,4.771462
16.499989,0.389099,-0.190735,0.003789,-0.052092,8.305329,4.754098
16.515517,0.228882,-0.221252,0.034307,-0.054487,8.336464,4.778647
16.531063,0.358582,-0.228882,-0.087764,-0.064067,8.319100,4.776851
16.546682,0.350952,-0.419617,0.019048,-0.036524,8.325686,4.763678
16.562458,0.274658,-0.297546,0.110601,-0.056283,8.328082,4.776252
16.578098,0.297546,-0.221252,0.064824,-0.049697,8.328082,4.790023
16.593700,0.320435,-0.289917,-0.026729,-0.017963,8.353230,4.797807
16.609295,0.495911,-0.312805,-0.019099,-0.062869,8.329878,4.787628
16.625001,0.404358,-0.251770,-0.064875,-0.086221,8.322693,4.796011
16.642087,0.396729,-0.167847,-0.087764,-0.068857,8.336464,4.760086
16.658067,0.381470,-0.350952,-0.011470,-0.087418,8.321495,4.780443
16.674224,0.457764,-0.259399,0.133489,-0.052092,8.305927,4.758289
16.689898,0.297546,-0.213623,0.019048,-0.143701,8.316706,4.764875
16.705607,0.335693,-0.343323,-0.049617,-0.041913,8.327483,4.782838
16.721248,0.366211,-0.289917,-0.011470,-0.028740,8.304132,4.781042
16.736894,0.213623,-0.305176,-0.080134,-0.075443,8.295150,4.790622
16.752507,0.442505,-0.274658,-0.080134,-0.058678,8.314310,4.773857
16.768085,0.495911,-0.289917,0.049565,-0.092208,8.308323,4.775653
16.783570,0.404358,-0.251770,0.049565,-0.094603,8.298742,4.790622
16.799056,0.267029,-0.282288,0.141118,-0.033530,8.341853,4.766073
16.814561,0.213623,-0.236511,0.041936,-0.033530,8.369396,4.783437
16.830072,0.381470,-0.312805,-0.019099,-0.022753,8.361013,4.784036
16.845669,0.564575,-0.175476,0.125859,-0.102986,8.344248,4.746314
16.861515,0.434875,-0.175476,0.026677,-0.087418,8.335267,4.772060
16.877172,0.389099,-0.343323,-0.072505,-0.038320,8.322693,4.762480
16.892984,0.114441,-0.282288,0.011418,-0.087418,8.338261,4.786431
16.908656,0.274658,-0.190735,-0.064875,-0.014969,8.358618,4.784036
16.924615,0.358582,-0.244141,0.026677,-0.052690,8.313711,4.792418
16.940767,0.480652,-0.160217,0.019048,-0.065863,8.312514,4.796011
16.956588,0.442505,-0.320435,-0.019099,-0.051493,8.319699,4.797807
16.972214,0.404358,-0.091553,0.095342,-0.001198,8.308323,4.799005
16.987854,0.183105,-0.305176,0.019048,-0.055085,8.326285,4.799005
17.003505,0.259399,-0.198364,0.095342,-0.008383,8.327483,4.788826
17.019116,0.244141,-0.305176,0.034307,-0.066462,8.341254,4.769067
17.034656,0.328064,-0.312805,-0.034358,-0.101788,8.340655,4.799603
17.050159,0.389099,-0.259399,0.041936,-0.038320,8.357421,4.769067
17.065695,0.305176,-0.190735,-0.011470,-0.056283,8.346045,4.743320
17.081477,0.213623,-0.244141,0.026677,-0.086819,8.374186,4.761882
17.097470,0.411987,-0.183105,-0.095393,-0.029339,8.326884,4.760086
17.113414,0.358582,-0.183105,-0.026729,-0.068258,8.321495,4.791221
17.129291,0.305176,-0.251770,-0.026729,-0.018561,8.319100,4.809183
17.145176,0.335693,-0.267029,-0.019099,-0.047900,8.333470,4.800801
17.161100,0.312805,-0.122070,0.080083,-0.069456,8.317903,4.796011
17.176929,0.167847,-0.251770,-0.034358,-0.059277,8.316706,4.808585
17.192696,0.404358,-0.267029,0.064824,-0.083826,8.316107,4.797807
17.208375,0.282288,-0.144958,0.072454,-0.053289,8.362809,4.757092
17.224083,0.549316,-0.259399,-0.026729,-0.046104,8.318501,4.788826
17.239772,0.404358,-0.213623,0.049565,-0.083826,8.313113,4.777449
17.255593,0.343323,-0.366211,0.118230,-0.055684,8.289762,4.785233
17.271290,0.373840,-0.297546,0.034307,-0.046703,8.339458,4.776252
17.286913,0.274658,-0.137329,0.011418,-0.095202,8.310718,4.771462
17.302537,0.404358,-0.160217,-0.034358,-0.067061,8.325088,4.785233
17.318173,0.343323,-0.305176,-0.011470,-0.099992,8.318501,4.755295
17.335132,0.267029,-0.236511,0.125859,-0.047900,8.327483,4.745117
17.350664,0.305176,-0.404358,0.003789,-0.026345,8.324490,4.762480
17.366130,0.251770,-0.320435,0.026677,-0.062869,8.326884,4.778048
17.381667,0.282288,-0.343323,-0.041987,-0.047900,8.344847,4.776252
17.397398,0.381470,-0.251770,-0.057246,-0.058678,8.332273,4.751104
17.413412,0.404358,-0.190735,-0.064875,-0.077838,8.359816,4.767271
17.429145,0.312805,-0.282288,0.072454,-0.047900,8.308323,4.776252
17.444937,0.335693,-0.236511,-0.049617,-0.055684,8.300539,4.778647
17.460667,0.244141,-0.175476,-0.095393,-0.095202,8.334668,4.790023
17.476455,0.305176,-0.267029,-0.057246,-0.052092,8.306526,4.790023
17.492312,0.381470,-0.144958,0.011418,-0.066462,8.287965,4.790622
17.508119,0.381470,-0.320435,0.049565,-0.010778,8.335865,4.787628
17.523875,0.312805,-0.358582,0.034307,-0.033530,8.308922,4.794813
17.539645,0.373840,-0.251770,-0.072505,-0.049697,8.325686,4.778647
17.555341,0.259399,-0.396729,0.087712,-0.095202,8.356223,4.781042
17.570983,0.320435,-0.320435,0.064824,-0.090412,8.356223,4.770264
17.586814,0.381470,-0.152588,0.019048,-0.212558,11.778706,5.314532
17.602556,-6.629944,0.846863,1.857732,-0.116158,10.065668,11.306273
17.618236,46.386719,0.778198,-6.130244,0.108375,13.538446,10.580582
17.633820,125.785828,-6.210327,-6.900813,0.614921,11.522439,7.263480
17.649479,128.189087,-0.694275,-8.495357,0.125739,9.923763,6.806630
17.665119,139.198303,0.114441,-6.336238,-0.407153,9.364527,5.653428
17.680638,146.720886,-5.065918,-8.762385,-0.435295,8.243657,4.937317
17.696282,168.464661,-6.416321,-11.821773,-0.002395,8.411308,5.479789
17.712006,181.083679,-6.134033,-8.716609,-0.789758,8.346643,4.887620
17.727716,193.374634,-3.410339,-7.015254,-0.127535,7.339537,4.134387
17.743460,210.952759,-3.799438,-2.788569,-1.098715,5.814508,3.623649
17.759278,204.185486,-2.487183,-1.544978,-0.968785,5.027146,0.024533
17.782475,206.649780,-4.676819,7.083867,-0.901126,0.092208,-2.056140
17.803562,112.648010,2.540588,11.135076,-0.474214,1.249601,-1.656172
17.819083,60.264587,6.416321,8.190129,-1.992057,10.153686,2.720726
17.834547,93.421936,4.852295,13.454412,-0.023351,8.155641,0.374805
17.850063,120.079041,-2.616882,7.251714,6.180947,19.617605,19.285280
17.865982,44.616699,-1.045227,-6.267573,0.144300,16.114889,13.909060
17.881647,30.540466,-3.005981,2.574895,3.245850,-0.922681,4.126603
17.897458,85.426331,-11.741638,-3.925349,-2.163301,-5.461842,4.941508
17.913356,97.969055,-0.076294,-8.228328,-1.819017,11.445798,-11.728427
17.929219,64.201355,20.591736,-4.024531,-8.695118,19.617605,-13.560018
17.945001,75.103760,61.264038,15.262578,3.320096,-0.665815,-2.232174
17.961156,72.387695,-0.373840,-7.892634,4.605623,11.294912,0.588560
17.976989,24.276733,1.106262,-22.861506,-7.731722,7.977810,-11.335644
17.992648,8.071899,41.770935,-2.254512,-0.088017,10.384206,-13.045688
18.008250,-42.533875,0.671387,-6.473567,-0.293989,6.379733,-6.566561
18.023797,-35.934448,19.134521,1.804326,-1.629811,10.624307,-4.167949
18.039416,-19.134521,4.135132,1.979802,0.460443,9.210048,-4.633181
18.055091,-6.004333,9.124756,1.964543,-0.314346,8.460406,-6.610270
18.070564,1.777649,-0.335693,2.468083,1.367556,9.856703,-6.244431
18.086058,13.130188,-2.258301,-1.750972,-0.571811,10.364447,-6.115698
18.101562,27.336121,-4.371643,-0.713374,0.201780,9.422007,-4.378111
18.117046,39.634705,-2.723694,4.123662,0.438887,9.067544,-3.636254
18.132532,48.057556,-6.111145,-3.940608,1.780697,9.584868,-1.569951
18.148063,63.247681,-24.368286,-3.376033,-0.358654,10.353669,0.690947
18.163642,88.615417,-21.591187,3.627751,0.825683,11.746373,1.648356
18.179429,119.964600,-21.232605,2.094243,0.015568,11.823014,1.757330
18.195422,131.172180,-18.478394,3.284429,-0.116757,9.110056,-0.028157
18.211396,117.027283,-11.047363,6.259892,-0.035327,7.319180,-1.992672
18.227568,87.440491,-11.825562,3.147099,-0.161065,6.501280,-3.320710
18.243487,49.926758,-11.978149,0.545476,-0.579595,7.267088,-5.457068
18.259407,18.318176,-11.138916,3.406499,-0.479603,5.424719,-4.751136
18.275289,7.522583,-8.132935,3.253911,-0.959205,7.065907,-6.173179
18.291569,-1.365662,-7.583618,1.865361,-1.143023,7.856862,-6.749780
18.307613,8.132935,-8.346558,-0.965144,-0.458047,7.388635,-6.580931
18.323239,11.825562,-5.371094,-4.245784,-0.171244,7.445517,-6.401903
18.339177,68.244934,-7.659912,-3.353145,-1.321452,11.130854,-10.120770
18.355046,98.556519,6.248474,-5.916621,0.132924,8.329878,-7.407811
18.370784,143.386841,6.179810,-8.945491,-0.321531,7.206015,-7.492236
18.386455,147.476196,6.668091,-7.457759,-0.916694,7.374864,-7.953876
18.402081,153.297424,7.698059,-10.456111,-1.977687,7.569459,-12.778044
18.417764,151.268005,24.131775,3.055547,0.530497,6.524632,-8.292172
18.437072,163.444519,13.900757,-6.641414,0.619113,3.382366,-8.686153
18.452588,176.422119,3.631592,-20.236994,-0.165256,3.272794,-8.745430
18.468114,175.964355,13.473511,-10.959651,-1.713038,4.494254,-9.597458
18.483653,183.158875,14.305115,-7.007625,1.565145,5.545668,-8.744232
18.499175,187.911987,9.658813,-11.226680,0.228724,5.386399,-9.768702
18.514726,200.241089,7.820129,-9.639766,-0.562231,3.178191,-9.530397
18.530529,191.665649,4.104614,-6.794002,0.429906,1.706451,-8.106558
18.546373,194.129944,-1.411438,-4.024531,0.090412,1.793271,-10.911725
18.562140,187.370300,1.663208,-0.782039,1.117277,1.919608,-9.798639
18.577951,186.004639,-2.143860,2.391789,0.800535,0.470023,-10.228545
18.593906,181.655884,-3.181458,2.826665,0.646057,0.576002,-8.805305
18.609502,185.401917,-4.356384,5.771611,0.374821,-0.037123,-10.306982
18.625135,185.485840,-4.737854,8.106206,-0.052092,-0.757425,-10.417153
18.640721,185.424805,-5.783081,10.250066,-0.167053,-0.562830,-9.841750
18.656391,187.118530,-8.918762,14.049504,-0.661025,-2.261497,-9.005888
18.672025,235.183716,-9.452820,19.863104,0.992137,1.180146,-3.951199
18.687800,152.381897,-11.024475,17.841314,-2.402205,-1.117277,18.402716
18.703482,81.542969,-6.187439,9.952519,-0.601749,8.923244,-5.787580
18.719068,-0.289917,-14.366150,17.208075,-2.980602,2.399211,-6.459383
18.734673,-28.213501,4.676819,28.270697,1.272953,-3.056045,10.456639
18.750223,7.362366,-8.186340,21.846746,-0.361648,0.433499,-0.571228
18.765742,19.233704,-2.243042,21.144842,0.008383,-2.448907,1.242401
18.781239,19.104004,-5.134583,18.711065,-0.041314,-2.748884,-3.976347
18.796961,13.656616,-5.401611,17.177557,-1.063389,-7.517966,3.478151
18.812755,-184.623718,-23.239136,42.484257,-0.073048,17.591419,-19.817604
18.828541,-132.240295,48.004150,0.995610,-4.718188,-1.044827,-19.817604
18.844324,91.835022,15.350342,-11.959102,-5.482200,-19.617605,-19.817604
18.860133,189.720154,-8.468628,-14.606502,-0.607736,-2.435136,-13.156457
18.875886,199.028015,13.397217,-12.043025,0.079634,-4.117039,-6.667750
18.891668,249.969482,7.286072,-21.694208,1.716032,-2.078278,-4.894238
18.907593,236.099243,-5.805969,-20.938898,-0.080832,-4.630171,-8.571192
18.923379,193.855286,0.930786,-19.588495,-0.137115,-4.403244,-8.114941
18.939042,175.888062,3.334045,-15.796687,0.080832,-4.648134,-5.795963
18.954770,157.669067,0.831604,-12.348201,-0.144899,-4.705615,-4.473912
18.970440,137.390137,-1.243591,-10.662105,0.172441,-4.663702,-4.333804
18.986057,112.724304,1.014709,-8.991267,1.077160,-5.545668,-5.058896
19.001605,95.024109,-1.525879,-7.366206,0.816702,-5.673203,-5.655256
19.017511,78.842163,-2.342224,-6.145503,0.129930,-3.710484,-5.633700
19.033143,63.850403,-4.951477,-1.117732,0.314945,-9.042995,-7.328775
19.048838,119.514465,-5.905151,0.690435,-1.149609,-10.156679,-10.863825
19.064696,145.355225,2.258301,6.809209,-0.118553,-7.066505,-5.692977
19.080626,143.051147,5.149841,7.656072,-0.113165,-9.103469,-4.574503
19.096471,136.474609,3.814697,6.832097,-0.304766,-8.181387,-5.028958
19.112110,134.971619,2.944946,6.526921,-0.073048,-8.315508,-4.543967
19.128081,132.011414,4.722595,1.087163,0.584984,-10.032737,-4.804425
19.143996,129.890442,-0.511169,1.918767,0.138312,-8.821456,-3.713494
19.159809,133.193970,0.099182,1.056646,-0.586181,-9.323213,-3.732055
19.178851,133.094788,1.075745,-0.278499,-0.261057,-10.746452,-2.860268
19.194687,139.183044,1.258850,2.315495,-0.693358,-10.411150,-3.190781
19.210472,144.203186,1.045227,-0.812556,0.103585,-8.965755,-1.237043
19.226177,123.207092,-1.823425,2.513860,0.386197,-11.347004,-2.047159
19.241985,128.364563,2.372742,2.552007,1.175955,-10.349478,-0.097014
19.257943,90.347290,-0.221252,3.406499,-0.266446,-9.909992,0.396959
19.273633,43.594360,1.510620,2.124761,0.397573,-11.865525,1.095706
19.289252,52.207947,-8.171082,-0.057246,0.014969,-6.384523,1.354368
19.305020,95.535278,-3.707886,3.498052,-0.938848,-8.295150,0.376601
19.320661,100.639343,-1.525879,1.056646,-0.635279,-10.544073,-3.381783
19.336220,112.861633,4.692078,7.564519,0.149689,-6.764733,-0.911920
19.351789,125.602722,-10.818481,3.543828,0.165256,-11.470946,-2.126194
19.367622,149.154663,-8.522034,-1.079585,0.288600,-11.061398,-0.838871
19.383437,135.200500,-6.652832,3.429387,1.242416,-15.635885,1.413644
19.399146,152.328491,0.785828,-5.809810,-0.882565,-10.123149,1.219049
19.414903,53.436279,-3.829956,13.225530,2.420766,-19.617605,-11.584725
19.430743,-94.512939,-85.075378,49.793217,-19.617605,12.881613,-19.817604
19.446513,-161.636353,-6.553650,-49.144772,-15.844851,-19.617605,19.417604
19.462214,-196.319580,6.546021,13.332341,-10.293195,-19.617605,2.803953
19.478021,-50.506592,4.905701,-1.125361,0.346080,4.362528,-9.507645
19.493890,-155.578613,32.234192,-11.142756,1.736988,-13.819263,-1.284944
19.509766,-175.041199,19.912720,8.052800,-2.052532,-9.178912,-0.807137
19.525813,-202.362061,24.421692,0.682805,1.692081,-7.947274,-0.233530
19.541586,-221.313477,27.359009,1.522039,1.680705,-9.105865,0.335886
19.557531,-233.200073,25.131226,7.778142,-1.042432,-11.621234,-0.889167
19.573304,-234.695435,33.447266,4.375432,0.808319,-11.713442,0.465815
19.588906,-247.024536,27.359009,-13.599422,1.141227,-11.000923,3.238649
19.604619,-204.185486,15.251160,-13.248469,1.460962,-10.847642,0.225116
19.620321,-127.220154,13.946533,-8.083369,-0.136516,-9.954899,4.079900
19.635920,-107.322693,0.366211,12.607549,-0.132325,-5.081034,0.458032
19.651524,-80.436707,-4.837036,26.500677,1.117277,-7.876620,-4.141603
19.667129,-55.656433,-11.680603,19.802069,-0.050295,-6.831194,-7.743114
19.682789,-43.846130,-2.098083,35.991642,1.374741,-10.218350,-3.605718
19.698400,-15.068054,6.294250,25.241827,0.668809,-10.523117,-6.759360
19.714629,-5.958557,-5.332947,19.000982,-2.004631,-8.490943,-5.737884
19.730784,-30.067444,0.808716,12.332891,-1.314866,-10.130334,-7.529957
19.746600,11.207581,5.538940,9.387944,0.023351,-9.194480,-9.219045
19.762580,71.708679,2.311707,9.265874,-0.689766,-11.948153,-8.887335
19.778502,84.861755,-3.364563,4.375432,0.318538,-8.770561,-7.160525
19.794350,87.142944,-6.706238,-2.864863,-0.680784,-8.420290,-7.316801
19.811309,101.272583,-0.434875,-3.963496,-0.762814,-10.077044,-7.033589
19.827078,114.875793,-6.950378,-4.161860,-0.715512,-7.161108,-3.716487
19.842851,119.491577,-2.059937,-6.916072,-0.881966,-9.232800,-6.401304
19.858601,127.365112,-4.219055,-8.304622,0.199984,-7.197632,-4.785265
19.874426,131.080627,-5.966187,-10.562922,0.052092,-8.464598,-5.449284
19.890103,137.100220,-6.019592,-10.173823,-0.585582,-8.349637,-4.469721
19.905746,148.941040,-4.570007,-4.566218,-0.292791,-7.092850,-3.394357
19.921378,165.107727,-2.326965,0.545476,-0.422122,-6.394104,-3.327895
19.937120,158.897400,-0.465393,-1.422908,0.053289,-4.026627,-3.729061
19.952677,146.972656,-0.488281,10.684941,0.013771,-2.744094,-1.398108
19.968616,111.991882,-7.080078,-1.949336,-0.899330,-3.722459,-2.942896
19.984224,77.735901,-1.373291,-3.833797,-0.140707,-3.758983,-1.963932
19.999817,55.381775,8.216858,0.293706,0.020358,-5.492977,-2.009437
20.015543,38.787842,11.222839,-1.392390,-1.009501,-5.989944,-1.856755
20.031302,40.512085,12.893677,2.269719,1.983076,-3.644022,-3.999698
20.046948,64.361572,11.985779,14.560674,-0.986748,-10.899136,-3.114739
20.062908,131.607056,-2.014160,12.912724,-0.874182,-12.017610,-2.079492
20.078913,162.269592,-19.065857,15.972112,0.647853,-4.990023,-5.936072
20.094857,143.272400,2.166748,-5.039241,4.312232,-9.624386,-2.203434
20.110920,60.112000,1.731873,-28.209711,0.916095,-19.617605,-2.611785
20.126850,-21.644592,8.850098,-54.904964,-8.823252,-19.617605,-9.701042
20.142799,-94.696045,19.943237,8.106206,2.349514,4.482279,4.120615
20.158962,5.500793,0.625610,8.014653,2.341132,0.938848,7.347305
20.174807,-6.393433,41.107178,-13.454463,-2.130370,-19.612217,0.577184
20.190466,-7.438660,-3.402710,24.623846,2.559078,-11.073972,2.490206
20.206135,21.743774,7.301331,7.228826,1.493893,-7.771240,5.510325
20.221685,76.629639,-0.808716,-7.740047,-0.001796,-13.567785,7.841278
20.237228,116.943359,-14.266968,5.939458,-1.056802,-8.351433,1.720806
20.252772,152.709961,-2.990723,1.445745,-0.960403,-10.821297,1.526809
20.268271,160.797119,-3.150940,4.001592,0.428708,-10.398576,0.758008
20.284001,179.992676,-7.041931,8.342717,0.250280,-10.712323,-0.435909
20.299542,181.854248,3.158569,0.354741,-2.242936,-12.822336,-0.770613
20.317060,165.115356,0.587463,2.246831,0.218546,-10.260862,-0.072465
20.332919,126.701355,-2.494812,4.039739,0.445474,-7.525750,0.193981
20.348669,88.943481,4.928589,2.284978,-0.125140,-9.209449,1.212463
20.364325,56.556702,1.678467,3.528569,-0.747845,-9.766890,2.512958
20.379988,37.818909,-1.792908,2.620671,-0.242496,-8.691525,3.619457
20.395694,29.335022,-0.701904,2.719853,-0.231119,-8.126900,4.688235
20.411797,28.594971,-1.190186,3.437016,-0.008383,-8.350834,5.873171
20.427854,30.555725,-4.440308,1.369451,0.438289,-6.261778,8.596308
20.443801,69.107056,-8.483887,0.392888,-0.861010,-10.110575,9.113632
20.459604,84.869385,-4.295349,8.419011,0.139510,-8.826245,10.912890
20.475457,135.154724,-4.898071,11.760686,-0.376018,-7.055727,9.210630
20.491150,157.073975,-1.876831,10.379766,0.017963,-8.682545,8.034077
20.506836,159.423828,-6.385803,7.831548,-0.080832,-5.789960,7.621535
20.522583,172.767639,-2.227783,9.151433,-0.178429,-8.313113,7.709552
20.538258,171.844482,-3.410339,8.319829,1.156196,-13.226496,7.698774
20.553820,165.748596,-16.212463,-6.549861,-0.214953,-5.486990,8.954364
20.569356,161.743164,-9.017944,-2.407100,-2.324965,-7.726333,9.596229
20.584904,173.896790,1.152039,12.577031,-0.696951,-5.607938,8.501705
20.600424,172.012329,7.926941,9.563420,0.051493,-6.696475,10.247075
20.616062,179.092407,-6.523132,-2.323176,0.682581,-5.637876,10.145287
20.631728,184.020996,-2.220154,5.840276,-0.926873,-6.710845,9.446540
20.647467,189.880371,8.918762,4.306767,-0.022753,-4.850513,10.389579
20.663237,186.386108,-0.030518,-0.812556,0.342488,-4.806205,10.012363
20.679118,180.717468,0.167847,-1.964595,-0.517324,-2.639910,9.835731
20.694964,179.962158,5.149841,-0.377681,-0.740061,-2.078278,9.959673
20.710843,172.698975,0.701904,-1.132991,0.401166,-2.505789,10.095591
20.726729,171.669006,0.000000,-2.063777,-0.431702,-1.981280,9.787231
20.742424,170.829773,4.028320,-0.904109,-0.428708,-1.193917,10.382394
20.758028,171.356201,0.236511,0.102971,0.001796,-1.333427,10.484182
20.773734,177.146912,2.105713,-2.544429,-0.434696,-3.739823,10.535076
20.789655,166.206360,6.500244,3.169988,-0.549657,-8.369396,3.351814
20.805408,149.169922,4.615784,12.454961,-0.263452,-12.370275,-3.630267
20.821133,-10.360718,19.111633,20.702337,-2.541714,-3.012935,-7.267104
20.836926,-36.094666,26.557922,19.763922,-0.509540,0.488584,-3.292569
20.852503,-5.851746,13.610840,20.076727,1.308279,1.617836,0.649633
20.868202,-3.654480,14.503479,19.031500,2.107617,4.032614,-0.684991
20.883753,8.872986,8.354187,14.308904,-0.184417,1.831591,4.347543
20.899571,56.129456,5.279541,17.291998,0.365240,4.838538,7.079063
20.915337,-240.234375,-2.700806,-22.945429,16.696280,10.272239,-15.499385
20.931188,-234.748840,-1.701355,18.436407,-12.513977,-19.489471,19.417604
20.947002,9.201050,-32.432556,60.108158,1.850153,-1.762734,19.417604
20.962925,126.121521,0.732422,39.012882,5.100194,1.346001,19.417604
20.978807,172.897339,-44.433594,51.464054,-4.003874,4.007466,17.541107
20.994677,221.633911,-17.051697,45.406315,0.562830,0.931663,10.634470
21.010517,208.465576,1.731873,34.931156,-1.547183,1.725013,7.602973
21.027819,166.572571,8.529663,30.460333,-1.004112,1.421444,7.620936
21.047705,157.562256,-1.022339,24.974798,0.480800,2.585423,7.722724
21.066115,137.321472,-5.332947,13.812993,1.102906,2.241738,5.166041
21.087572,119.064331,-4.051208,7.030461,0.350870,3.188968,6.077346
21.105625,100.723267,-0.495911,3.696416,-0.314945,3.932023,6.121055
21.125035,86.326599,2.029419,-0.652339,-0.899929,5.091213,7.931690
21.147112,65.574646,2.250671,-5.115535,1.246009,4.443959,13.415088
21.166736,114.608765,-2.685547,-8.220698,-1.406475,6.019882,10.881756
21.182583,156.738281,-1.953125,-3.803279,1.390309,5.489385,7.628121
21.199238,148.391724,-1.403809,-1.857783,-0.949625,5.823490,6.843752
21.214849,134.086609,3.486633,-2.170588,0.037123,6.124664,6.545572
21.230916,138.000488,-0.648499,-2.857234,-1.211281,6.029462,6.017471
21.247399,133.483887,-3.082275,-2.162959,0.450862,7.608977,4.602613
21.263407,137.802124,-0.671387,-3.032710,0.104782,7.386839,6.881474
21.279711,141.204834,-3.616333,1.041387,-0.456251,7.789801,4.677457
21.295666,141.761780,-3.051758,0.522588,-0.580792,9.220226,6.061180
21.311454,149.871826,0.297546,4.070256,-0.625100,8.134684,5.622293
21.327453,154.808044,0.793457,2.323125,0.020358,7.865843,0.796927
21.343231,130.119324,9.185791,11.615727,-0.559836,8.162826,5.549244
21.358926,139.228821,6.050110,5.878423,0.547861,12.497810,-3.130905
21.374688,108.802795,20.233154,7.152532,0.096998,7.200626,-0.526321
21.390504,49.842834,22.933960,7.976506,0.623903,8.622070,-0.653856
21.406254,55.168152,28.015137,6.961797,-0.240101,10.430909,0.912487
21.422098,80.268860,11.497498,3.581975,-1.279539,10.277029,1.978270
21.437713,83.892822,13.420105,4.947637,0.375419,9.251961,0.037107
21.453319,81.909180,15.823364,4.802678,1.035846,10.286010,5.694742
21.468902,112.983704,20.019531,6.381963,0.527503,8.513097,5.348661
21.484850,153.686523,26.023865,5.176518,0.692161,6.703061,3.861354
21.500539,121.200562,28.495789,-5.237605,-0.858615,7.078480,7.635306
21.516408,114.044189,2.159119,-6.938960,-3.521277,7.664062,-10.771616
21.532317,21.568298,13.175964,-4.200007,-0.831671,7.716753,1.182525
21.548118,50.773621,29.182434,1.911138,1.374142,7.179670,4.425980
21.564023,172.096252,-41.084290,56.980106,-19.617605,5.546865,-17.169910
21.579884,-248.558044,-13.420105,10.463689,-19.617605,-5.726492,4.702605
21.595650,-140.472412,18.287659,-7.236506,-0.186812,-8.120314,3.654185
21.611708,-162.620544,63.247681,-9.098079,-1.750161,10.299782,8.440632
21.627630,-160.766602,55.145264,-2.780940,-2.659669,2.957250,6.304274
21.643843,-223.373413,62.858582,-18.154169,-3.284769,5.093608,1.574709
21.662385,-237.167358,75.637817,-21.976496,0.493374,10.852432,-0.740077
21.678185,-247.459412,69.549561,21.297430,-0.921484,16.146025,-2.472873
21.693965,-249.969482,75.370789,10.097478,0.545466,8.086185,1.277727
21.709746,-198.883057,53.817749,0.980352,1.847159,11.648776,-4.341588
21.725814,-153.831482,11.047363,34.336063,1.839375,4.225413,-0.871803
21.741793,-100.219727,21.728516,40.279362,-3.975134,9.959090,2.009406
21.757491,-85.083008,60.432434,45.314762,-2.796784,5.632487,7.462865
21.773258,-101.654053,53.283691,47.542545,-0.816702,8.153245,8.502303
21.788965,-67.810059,50.880432,51.021549,0.828078,9.545350,5.964780
21.804585,-62.080383,49.118042,48.236820,0.798739,9.106463,7.234140
21.820156,-52.024841,37.536621,43.689701,-0.056882,8.836425,6.540782
21.836578,-44.692993,35.560608,40.744755,0.631088,14.823375,9.210630
21.852174,-21.064758,19.767761,32.871220,-0.289797,9.649533,9.321999
21.867856,30.807495,6.309509,24.051641,-0.614322,11.031460,12.418160
21.883813,64.468384,10.498047,13.797734,-0.235311,8.532257,8.951369
21.899760,66.001892,-2.952576,10.189031,1.145418,7.365284,7.770026
21.915423,72.578430,-2.494812,2.796147,-0.120948,8.698711,9.136385
21.931114,96.206665,2.540588,-1.110103,1.193917,6.874305,7.840679
21.946845,105.293274,-0.907898,-1.819636,0.616718,6.727610,7.377842
21.962690,113.380432,1.266479,-8.541133,0.008383,8.470585,7.192827
21.978554,123.710632,-2.319336,-9.708430,0.592169,6.916218,6.473722
21.996574,135.154724,-1.808167,-10.120418,-0.240699,6.186336,6.013279
22.012359,147.171021,0.869751,-10.150935,-0.583187,6.642587,5.958194
22.028095,164.886475,2.632141,-9.616878,0.141905,4.972061,4.299044
22.043769,162.521362,3.623962,-5.397822,-0.328716,2.757266,2.174063
22.059575,134.170532,7.476807,-4.039790,-0.995729,3.953578,3.072196
22.075234,111.999512,12.657166,-1.682307,-0.062869,0.913700,1.002899
22.091158,85.739136,15.815735,1.972173,-0.139510,0.620310,0.745434
22.106879,53.474426,16.860962,5.107854,0.347278,1.599873,2.912328
22.122474,48.431396,19.508362,7.129643,0.420925,5.098398,3.534434
22.138056,37.368774,26.695251,8.319829,0.023950,10.235715,6.002502
22.153645,78.971863,28.282166,12.027715,0.663420,13.607903,7.464661
22.169233,126.312256,28.076172,7.564519,0.254471,11.308084,5.100777
22.185348,150.894165,30.250549,3.658269,0.076641,1.604064,2.565649
22.201389,142.311096,29.563904,0.919316,-0.332309,1.810635,-6.762353
22.217148,85.319519,40.374756,11.951421,1.464554,-7.789202,-3.486566
22.233240,-27.610779,38.795471,4.528020,2.441124,19.617605,19.417604
22.248912,-82.756042,33.256531,3.620122,1.051414,19.617605,19.417604
22.264593,-115.486145,20.683289,11.493657,-4.190685,-17.668058,-8.899310
22.280452,64.483643,12.458801,11.463140,-3.954177,-17.278868,-3.317717
22.296304,89.172363,15.541077,-1.369502,-2.218387,8.709489,2.089639
22.312127,36.628723,21.392822,-26.935602,-1.501078,19.617605,9.933927
22.327718,9.262085,32.966614,-9.334590,-2.586621,15.842456,0.588560
22.344273,86.257935,31.654358,3.124211,-0.087418,4.349356,0.799322
22.360058,143.463135,35.346985,-7.755305,0.584984,12.905562,2.580618
22.375736,141.830444,24.459839,-13.286616,1.329236,15.909516,1.386700
22.391534,171.920776,20.507812,-7.724788,-1.668131,8.889713,2.103410
22.407264,216.949463,35.026550,-4.642512,2.052532,7.979606,0.241881
22.422944,215.209961,26.908875,-10.532405,0.843646,12.147539,-2.178286
22.438584,157.981873,17.616272,-12.561824,-0.470023,6.968309,-2.046560
22.454136,134.567261,21.255493,-6.443049,0.598755,3.354225,-0.904136
22.469738,119.995117,18.394470,-8.411433,1.985471,8.161029,-4.787660
22.485392,74.409485,8.811951,-12.294795,-0.099992,6.904841,-5.839074
22.501145,63.385010,8.560181,-3.948237,-0.714913,4.424200,-3.108751
22.516803,85.800171,6.744385,9.067510,-1.331032,9.919572,-10.430326
22.532833,58.403015,-0.625610,1.186345,1.393901,6.843768,-7.504211
22.548770,112.998962,-3.509521,-3.665950,0.095801,5.279820,-5.406174
22.564571,170.265198,-7.682800,3.803227,-1.962120,11.934382,-8.541254
22.580337,192.382812,7.789612,0.370000,-0.013173,4.704417,-5.830691
22.596414,196.228027,-4.554749,-2.719905,-2.704576,-6.524033,-4.084722
22.612309,203.125000,-0.701904,-0.637080,-0.435894,1.687890,-10.476430
22.628071,204.597473,0.022888,1.445745,-0.750839,5.806725,-10.853645
22.643951,210.212708,-1.480103,-6.275203,0.486788,6.290519,-11.979903
22.659693,208.061218,3.150940,2.666448,-0.451461,4.130810,-9.043610
22.675292,229.530334,1.998901,2.246831,0.557441,3.614683,-10.811733
22.691093,235.542297,-4.875183,-0.751521,1.139431,3.414100,-8.444256
22.706847,241.485596,-0.160217,3.047917,-0.016166,3.712280,-9.622605
22.725400,249.755859,0.137329,5.825017,0.019160,2.101630,-12.149950
22.741350,248.199463,-4.013062,5.641912,-0.489781,-0.216151,-9.082529
22.757488,241.264343,-3.959656,6.198857,-0.546064,-1.817820,-8.608913
22.773236,245.552063,-6.500244,12.172673,-0.044308,-1.518442,-10.291415
22.789461,242.942810,-5.836487,13.004277,-0.497565,-2.602189,-8.959784
22.805111,236.778259,-9.712219,15.903447,-0.441881,-0.835263,-9.098695
22.820980,240.058899,-6.164551,19.496893,-0.365240,-2.447710,-8.946611
22.836878,246.559143,-6.698608,19.649481,0.062869,-3.776347,-10.148313
22.853036,249.328613,-6.301880,20.664190,-0.133522,-4.637357,-8.689147
22.868980,248.870850,-4.257202,24.730658,0.268841,-5.088219,-8.640049
22.885194,249.946594,-3.692627,26.897406,0.270637,-5.507946,-3.464412
22.901053,249.969482,-7.461548,26.004766,0.401765,-1.607058,-12.464895
22.916958,245.040894,7.873535,19.664740,5.518724,4.325405,-2.421381
22.935173,41.328430,-4.341125,18.924688,1.095123,3.782335,5.884547
22.951089,7.209778,10.299683,31.864141,-1.058599,0.057480,10.635068
22.966891,71.907043,6.652832,35.259220,1.501677,0.546663,2.298604
22.982546,67.062378,11.711121,32.497379,-0.337099,-2.947670,3.303315
22.998170,-48.576355,74.516296,13.355229,-1.754951,-19.617605,-19.817604
23.013978,-0.259399,-5.722046,55.347416,7.570058,-19.617605,-14.819200
23.029787,11.245728,26.252747,2.872441,-0.418530,-19.617605,-19.817604
23.045651,168.632507,19.462585,-1.857783,-0.296384,-18.397942,1.948333
23.061414,249.908447,8.705139,24.944281,-0.205972,5.798941,5.983941
23.077320,209.747314,27.908325,-1.247432,1.435215,-4.521797,-8.290376
23.093007,187.332153,48.095703,-12.775447,2.789000,-19.617605,10.266834
23.108604,137.245178,16.036987,-29.499079,-1.356779,-4.482279,-14.761120
23.124133,80.780029,30.952454,-16.819025,-0.942440,-10.119556,-2.761473
23.139748,42.182922,31.608582,-10.639216,0.229922,-8.966354,1.614826
23.155312,26.588440,52.787781,8.930181,-0.202379,-6.517447,-1.910643
23.170883,-27.107239,55.244446,15.941594,-0.687371,-10.555449,0.475396
23.186442,-72.280884,48.828125,5.123113,1.221460,-12.500206,0.907697
23.202081,-78.887939,45.738220,-9.120967,-0.084424,-5.254074,2.292617
23.217715,-66.596985,38.383484,-8.937861,-1.290317,-2.969824,0.647837
23.233674,-111.915588,9.597778,58.422062,-4.602629,-17.104033,3.488330
23.249494,-128.410339,45.776367,28.301214,6.510860,-4.311035,1.941147
23.267715,-76.187134,6.538391,22.579168,6.516848,-11.685300,-16.502298
23.283588,-25.955200,16.815186,41.919682,-4.342170,-3.008743,-1.829212
23.299449,-33.279419,16.738892,42.797062,2.510579,-16.290922,-6.598894
23.315220,-4.081726,-2.723694,36.098454,-1.748364,-8.398735,-6.318078
23.331104,-4.104614,6.706238,28.285955,-0.877176,-8.662786,-6.346219
23.346950,-4.425049,13.771057,25.310492,0.598156,-9.648336,-4.122443
23.363274,1.312256,8.392334,13.507817,0.441881,-4.297264,-5.764229
23.379023,1.808167,-0.091553,-0.339534,-0.538879,-8.290958,-6.278560
23.394764,7.308960,1.564026,1.171086,-0.704136,-7.634125,-6.725830
23.410431,9.201050,5.500793,-0.858333,-1.262175,-8.978929,-5.524727
23.426082,11.489868,3.318787,-1.590754,-0.091610,-7.735913,-4.217645
23.441787,-5.706787,0.137329,-6.000545,0.076641,-10.084828,-5.701959
23.457577,-4.325867,-4.371643,-8.289363,0.501757,-10.718311,-1.983691
23.473157,-46.012878,-8.026123,-10.395076,-2.732717,-6.507268,-2.900384
23.489121,-81.878662,-7.499695,-12.752559,0.592767,-12.872631,-5.474432
23.504698,-100.532532,-15.953064,-14.858272,0.382006,-10.582394,-2.475269
23.520307,-93.643188,-20.950317,-17.818476,-1.476530,-9.538165,-1.929204
23.535919,-97.106934,-19.065857,-15.506770,-1.045426,-7.333550,-4.639169
23.551676,-84.571838,-6.896973,-16.643549,0.685574,-7.519164,-8.363424
23.567401,-63.362122,-3.662109,-10.097529,-1.331631,-5.874384,-9.480102
23.583485,-53.657532,-4.920959,-5.374934,-1.177751,-6.158792,-7.861668
23.599391,-39.138794,0.305176,-2.712276,1.030457,-8.168214,-4.183516
23.615214,-61.210632,-15.731812,-4.085567,0.001198,-13.904884,-12.312213
23.631101,-164.604187,-4.409790,-2.635982,-0.054487,-7.237150,-8.165236
23.647017,-226.509094,-6.340027,7.366155,-1.517245,-9.325008,-5.396594
23.662843,-206.314087,-9.117126,1.407598,1.593287,-7.371271,-3.400345
23.679196,-212.944031,-3.852844,1.064275,1.460363,-8.210726,-4.289496
23.695041,-172.409058,-9.727478,-1.338984,-0.161664,-6.625822,-7.168309
23.710834,-174.919128,-3.295898,-5.428340,-1.644780,-4.481680,-8.785546
23.726533,-168.411255,-1.617432,-4.764583,-1.368754,0.216151,-10.238725
23.742221,-147.331238,-2.792358,-5.184199,-1.186732,-0.415536,-10.888373
23.757969,-102.195740,0.251770,-13.729121,0.735870,0.984952,-10.074665
23.773522,-62.545776,-1.396179,-17.078424,-0.594564,1.240620,-9.970482
23.789061,-33.721924,3.662109,-17.223383,-0.229922,0.386197,-12.802593
23.804566,-35.636902,5.378723,-15.590693,0.189207,-0.616718,-11.787105
23.820086,-52.955627,5.882263,-13.439204,0.260458,-3.432063,-8.658011
23.836057,-57.838440,5.683899,-10.273005,-0.214953,-3.180586,-7.894000
23.851848,-59.738159,0.846863,-7.907893,0.322729,-2.377057,-8.724473
23.867625,-66.444397,0.267029,-3.719356,0.105381,-1.382525,-8.792731
23.883415,-73.883057,0.022888,0.446294,0.074844,-2.154919,-9.465133
23.899192,-81.268311,-0.823975,2.590154,0.455652,-1.941762,-10.010000
23.914902,-83.518982,-2.700806,3.993962,-0.129930,-1.259181,-10.158491
23.930903,-83.572388,-3.997803,5.855535,-0.184417,-0.198787,-10.032154
23.946921,-78.140259,-1.197815,5.672429,-0.838257,-0.262255,-12.212220
23.962692,-70.960999,5.401611,7.122014,-0.179626,0.071252,-11.681724
23.978464,-47.645569,8.758545,2.162908,-0.156275,0.450862,-11.613465
23.994158,-32.920837,-0.282288,-2.597835,-0.480201,-1.165776,-9.909410
24.010013,-34.858704,-4.867554,-3.429439,0.090412,-0.236508,-10.155498
24.025815,-28.610229,0.823975,-0.766780,0.026944,-0.154479,-10.997946
24.041645,-21.949768,5.264282,-1.735713,0.764011,0.492177,-10.280637
24.057310,-12.077332,5.538940,-6.443049,0.099393,0.443079,-11.018303
24.072950,-3.639221,2.471924,-5.519893,0.252675,1.133443,-10.566243
24.088472,6.637573,3.364563,-5.916621,0.249082,1.265768,-10.142923
24.103969,14.160156,2.838135,-2.223994,-0.113763,0.352068,-10.151306
24.119517,19.462585,0.946045,-0.087764,-0.247286,0.784369,-10.500979
24.135167,21.591187,-2.304077,0.522588,0.319735,-0.079036,-10.183041
24.150958,24.650574,-2.769470,1.262639,0.655038,-0.176034,-9.554946
24.166553,30.052185,-2.273560,3.330205,0.531694,0.116757,-10.391407
24.182309,32.798767,-2.830505,4.383061,0.055684,0.077838,-10.242916
24.198286,36.026001,-3.738403,5.435918,-0.158670,0.372426,-10.320754
24.214124,39.405823,-4.341125,6.404851,0.283810,-0.182021,-9.918989
24.230051,46.920776,-4.508972,6.481145,-0.089813,-0.224533,-10.424338
24.245926,48.103333,-4.539490,8.426641,-0.029938,-0.430505,-9.891446
24.261665,48.225403,-5.630493,9.143804,0.176034,-0.519719,-9.415437
24.277375,47.988892,-4.463196,9.059880,-0.416733,-0.878972,-9.838757
24.293074,49.674988,-3.700256,9.151433,-0.022753,-0.995131,-4.357155
24.309037,84.220886,-8.483887,8.808110,0.514330,-0.054487,-6.586319
24.324862,-9.208679,8.926392,5.451177,-0.644260,1.422043,16.342999
24.340380,-103.416443,0.015259,4.215215,0.303569,1.938768,8.421472
24.356065,-134.300232,2.433777,2.284978,-2.281855,1.753753,-0.052706
24.371723,-134.979248,7.438660,11.852239,1.720821,-1.314866,2.017189
24.387359,-124.885559,-6.820679,4.016850,0.035925,0.943638,-0.635894
24.402878,-117.439270,6.538391,-1.216914,0.352068,0.521515,-6.803668
24.418593,-97.335815,7.698059,9.777043,1.260978,-3.260819,0.590955
24.434348,-134.872437,-118.469238,8.052800,-10.186617,18.314714,19.417604
24.449974,-208.953857,8.010864,-56.919125,-7.028784,19.617605,-19.817604
24.465679,-244.079590,36.636353,3.375981,13.517490,19.617605,-19.817604
24.481611,-60.234070,13.450623,-2.185847,-4.216432,6.005511,-19.817604
24.497466,28.366089,10.078430,-12.805964,-6.206094,1.993854,-19.817604
24.513163,81.008911,8.430481,-14.865901,-0.096400,7.406598,-11.546405
24.529208,93.627930,12.725830,-9.136226,-2.098037,3.028502,-8.577180
24.544967,76.126099,-1.167297,-8.945491,-1.769321,0.443677,-5.825901
24.560686,56.396484,-4.096985,-6.244685,0.066462,2.195634,-8.536465
24.576257,38.208008,-2.433777,5.229924,-0.076641,0.928070,-8.316721
24.591904,20.172119,-2.235413,2.689336,0.182620,1.493295,-7.659887
24.607568,13.565063,-7.423401,-2.826716,-0.738265,2.989583,-6.576739
24.623449,1.762390,-4.753113,0.476812,0.654439,2.662064,-7.035985
24.639524,-9.544373,-2.815247,1.743291,0.089214,2.995571,-7.123403
24.655246,-42.053223,0.213623,0.919316,0.322729,3.138673,-5.647472
24.671004,-15.434265,-2.929688,0.431035,-0.129930,7.813152,-7.495828
24.686819,31.440735,6.675720,2.956365,0.120948,7.550299,-9.708826
24.702618,37.002563,3.707886,-1.415278,-0.759221,3.939208,-8.151464
24.718389,61.889648,-3.936768,1.026128,-1.046025,3.927233,-11.485930
24.734017,70.243835,-3.425598,2.628301,-0.543071,2.411785,-10.362068
24.749911,82.191467,-5.302429,1.506780,-0.465831,2.086661,-9.351969
24.765652,92.208862,-14.373779,13.164495,0.142504,-2.469864,-19.817604
24.781396,179.595947,8.140564,2.460454,2.830913,6.107300,-9.680685
24.800029,113.883972,-6.370544,3.177617,-1.447191,2.768643,-11.857758
24.815793,104.171753,-2.006531,5.863164,1.282533,-1.431024,-8.690943
24.831560,82.298279,-1.914978,5.046819,1.029260,-7.800579,-9.038220
24.847310,38.375854,0.839233,4.291509,-1.479523,-7.841294,-6.276165
24.863009,-26.176453,4.905701,5.847905,-0.026345,-6.070776,-7.073107
24.879421,-73.280334,6.835938,5.161260,0.314945,-2.687212,-9.571113
24.895151,-84.167480,5.561829,6.557439,-0.440684,0.219743,-10.044727
24.911425,-81.794739,4.127502,6.313298,0.675994,-0.978964,-10.004012
24.927175,-69.801331,-5.981445,-2.765681,-1.196312,3.995491,-9.678289
24.942899,-41.427612,-2.052307,2.521489,1.449586,2.044149,-11.883504
24.958468,-29.235840,2.571106,2.658818,1.290317,0.632884,-9.901626
24.974025,-33.050537,-0.030518,-0.270869,-0.810714,-0.237706,-9.183120
24.989545,-42.564392,-0.953674,1.392339,-0.899330,-0.845442,-10.043530
25.005338,-51.063538,0.854492,-1.422908,-0.347278,-0.858615,-9.215452
25.020928,-72.509766,-8.789062,0.362371,-1.735790,-6.828201,-10.290217
25.037318,-173.538208,1.907349,-0.034358,0.137714,-5.134323,-7.865859
25.053246,-236.709595,-4.295349,2.468083,0.243094,0.150886,-8.412522
25.069149,-228.408813,-2.662659,3.177617,0.541873,0.807720,-8.420904
25.084968,-230.484009,6.088257,7.770513,0.376018,1.049617,-10.600971
25.100741,-211.166382,-3.738403,2.857183,0.140109,5.218748,-11.646996
25.116538,-202.674866,-5.874634,-1.300837,0.626896,4.326004,-10.054907
25.132460,-178.749084,0.892639,8.373235,0.670007,7.723938,-8.939426
25.148438,-154.861450,-4.432678,2.735112,-0.811912,9.357940,-6.647393
25.164442,-75.424194,-11.672974,-4.215266,1.180745,12.979210,-2.393838
25.180407,1.441956,-2.845764,5.817388,-0.227527,11.748768,-2.169305
25.196313,36.499023,-0.358582,3.269170,-0.766406,7.534132,-3.166831
25.212072,33.821106,-4.592896,-4.444148,0.029938,6.296506,-4.882263
25.227655,2.548218,-5.264282,-2.681758,-0.664019,4.961882,-4.663718
25.243262,-19.454956,-2.037048,-3.604915,-0.253872,4.868476,-5.745069
25.259234,-50.407410,0.144958,-3.307368,-0.119152,4.402645,-5.894758
25.274837,-67.062378,2.174377,-0.888850,-0.729283,6.383326,-6.683318
25.290412,-81.054688,1.846313,3.375981,-0.372426,5.489385,-8.287382
25.305980,-80.131531,1.632690,-0.522639,0.419128,6.776708,-7.622166
25.321577,-69.717407,2.578735,-4.238154,0.028141,7.799381,-8.079016
25.337191,-54.771423,6.614685,-0.293757,-1.622626,9.547746,-7.018022
25.353286,-31.433105,5.859375,-7.396724,-0.999921,8.925639,-7.865859
25.369356,-2.136230,6.370544,-9.838130,-0.203577,7.561077,-6.970720
25.385612,22.453308,8.430481,-4.230525,-0.491578,9.945917,-6.991677
25.401421,36.666870,13.442993,-2.521541,-0.439486,7.915540,-6.898870
25.417348,57.273865,10.307312,-3.025081,0.001796,8.053253,-7.649109
25.433127,69.534302,10.658264,-2.132442,-0.335901,7.889793,-7.779638
25.449021,83.427429,7.553101,-3.757503,-0.573607,7.800579,-7.486248
25.464810,98.846436,5.546570,-1.415278,0.280816,7.908953,-8.036504
25.480624,111.839294,5.813599,-0.774409,-0.065863,7.380253,-7.309616
25.496537,120.544434,5.767822,-0.385310,0.490380,6.494095,-7.235370
25.512204,126.434326,4.508972,0.186895,-0.495170,6.556965,-8.890328
25.527869,125.892639,4.295349,-2.048518,1.302292,5.079836,-8.883143
25.543603,124.359131,3.601074,-1.522090,0.522713,3.139272,-9.070554
25.559221,125.473022,-2.761841,-3.391292,-0.148491,3.815266,-7.563488
25.574889,127.723694,-3.379822,3.971074,0.700543,4.434978,-9.174737
25.590500,132.698059,-3.860474,4.848454,0.212558,4.760700,-9.134621
25.606705,136.436462,-6.622314,5.908940,0.304766,3.431464,-9.458547
25.622713,132.675171,-8.613586,6.282781,0.202978,2.578837,-8.521496
25.638561,129.829407,-7.614136,8.228276,0.202379,1.611848,-9.510638
25.654428,124.053955,-8.140564,10.272954,-0.162861,2.072889,-9.698647
25.670316,120.689392,-10.070801,12.485478,-0.238903,1.304088,-10.072869
25.686338,118.637085,-9.033203,13.347600,-0.023950,0.874182,-9.077140
25.702485,116.722107,-10.025024,13.507817,-0.216151,-0.356858,-4.188905
25.718721,132.164001,-16.235352,12.126897,-1.328038,3.239863,-3.533867
25.734838,35.041809,0.465393,11.844609,1.622626,1.026865,10.146484
25.751655,-79.284668,-13.145447,6.923650,-0.526306,0.005389,13.894092
25.767677,-85.517883,-5.813599,10.700200,-2.119592,0.916095,-1.513070
25.783938,-62.705994,-9.468079,18.360113,0.425116,-0.526904,0.655022
25.799990,-68.878174,-13.244629,10.303472,-0.693957,0.467029,1.947135
25.815840,-52.673340,-0.991821,5.405400,0.241897,-2.693798,-4.018260
25.831706,-60.943604,-5.836487,11.936162,0.149689,-1.469344,-6.933598
25.847584,-23.094177,-15.998840,4.657720,6.219267,19.599642,3.657778
25.863410,-129.379272,-15.625000,21.152472,19.617605,-18.942808,-19.817604
25.879059,-225.723267,28.488159,8.319829,0.649050,13.175601,2.706356
25.894676,-92.124939,18.043518,-10.921504,-3.479963,13.971945,-12.736730
25.910372,64.727783,17.105103,-24.501825,-0.289797,0.657433,-13.618097
25.925972,152.000427,16.937256,-18.779779,3.164420,2.292034,-15.213778
25.941501,178.169250,4.943848,-16.216303,0.658630,2.074686,-11.620650
25.957562,160.118103,6.790161,-8.937861,-0.826282,0.121547,-8.134101
25.973083,139.183044,3.486633,-7.114436,0.590372,0.998124,-8.494552
25.988662,111.045837,-1.457214,-5.962398,0.581990,0.417931,-7.479662
26.004425,94.955444,0.175476,-2.018001,0.384401,0.005389,-8.829255
26.020291,83.084106,-5.950928,0.484441,0.482596,0.840652,-8.402343
26.036139,71.777344,-8.087158,0.568364,0.261057,1.151406,-6.678528
26.052021,57.388306,-7.606506,0.690435,0.154479,1.295706,-7.068916
26.068466,36.621094,-4.791260,-0.309016,0.725092,4.345164,-6.737206
26.084464,47.012329,1.190186,-1.483943,0.586780,2.262096,-6.930005
26.100522,77.339172,-0.160217,-4.955317,-0.396376,2.600991,-10.458467
26.121269,92.102051,0.228882,-3.078486,0.169448,-0.613125,-10.831491
26.139276,109.016418,-0.495911,-1.430537,0.508343,-1.071771,-10.968607
26.157790,120.178223,0.328064,-0.186946,-0.382006,-2.952460,-11.541615
26.174482,134.605408,-2.861023,3.040288,-0.225132,-1.591491,-10.365062
26.195136,136.817932,-5.668640,10.646794,0.337698,-2.952460,-7.959265
26.211099,162.101746,-13.450623,5.954717,-1.024470,-2.320774,-8.590352
26.226805,133.666992,-2.967834,1.117681,0.755629,-6.529422,-8.712498
26.242555,121.536255,7.026672,3.589604,0.690364,-5.598957,-7.612586
26.258030,100.402832,-2.479553,7.183049,-0.488584,-7.948471,-7.303628
26.273556,71.113586,2.502441,6.198857,-0.567620,-8.044870,-5.713934
26.289089,21.217346,5.432129,3.826116,-0.235311,-7.818541,-5.267262
26.305269,-19.989014,6.668091,3.765080,0.041314,-6.914422,-7.400027
26.321251,-27.671814,1.892090,4.695867,0.696352,-7.064110,-7.642523
26.337177,-30.334473,3.456116,1.689885,1.034648,-3.547024,-9.023252
26.352968,-26.321411,-4.249573,-4.360225,-1.005309,-3.660787,-8.813089
26.368862,-1.983643,3.013611,-2.979304,0.871787,-4.936135,-12.131988
26.384837,20.370483,-0.976562,-0.774409,0.897534,-3.391946,-9.809417
26.401894,16.426086,-0.595093,-3.192927,-0.037123,-5.195396,-8.564007
26.417735,8.689880,1.884460,-4.138972,-0.134121,-9.430389,-6.031873
26.433396,-14.053345,-11.833191,2.086614,-1.068777,-10.880573,-6.044446
26.449168,-130.096436,-10.017395,5.008672,-1.585503,-10.899734,-9.263951
26.464784,-175.041199,-1.777649,2.254460,-1.701661,-7.446115,-8.116737
26.480428,-155.593872,0.434875,6.481145,-0.030536,-7.067703,-6.840192
26.496034,-154.479980,0.770569,7.930730,1.575324,-5.514533,-7.273091
26.511552,-123.123169,-3.074646,2.407048,0.451461,-3.111729,-8.421503
26.527107,-105.232239,-0.419617,1.567815,-1.375939,-1.151406,-9.754930
26.542743,-99.540710,-5.760193,6.488774,0.404758,2.687811,-9.633383
26.558277,-73.921204,-6.881714,3.330205,0.681982,2.885998,-10.656056
26.573777,-25.611877,-0.518799,-7.144954,-1.228645,4.002676,-9.716610
26.589294,3.776550,-5.401611,-8.731868,-1.126258,3.862568,-9.542373
26.604812,23.506165,-2.075195,-8.808162,0.177231,1.690884,-10.627915
26.620385,30.525208,6.759644,-6.778743,1.266367,-0.720302,-8.267623
26.636142,29.403687,3.067017,-8.480098,-0.264051,-2.178270,-9.887256
26.651895,15.022278,5.432129,-6.870296,0.044907,-2.378254,-9.918989
26.667820,11.421204,0.068665,-7.724788,0.428708,-2.433939,-10.206391
26.683636,11.230469,1.060486,-5.359675,-0.033530,-2.603386,-10.203398
26.699453,2.807617,-0.144958,1.834844,0.148491,-2.884801,-9.642963
26.715347,-2.929688,-2.601624,1.308416,-0.255070,-2.284849,-9.663321
26.731282,-5.073547,-0.930786,1.995061,-0.122146,-1.642385,-9.669908
26.747081,-6.202698,-3.799438,2.841924,-0.573008,-0.734672,-9.638772
26.763103,-2.578735,0.335693,1.735662,-0.690963,-1.098715,-12.224195
26.778816,3.005981,4.814148,-0.110652,-0.662223,-1.189726,-12.199048
26.794582,27.816772,5.889893,-0.293757,-0.670007,-1.878294,-11.090753
26.814982,40.237427,0.617981,-4.444148,-0.226928,-1.987267,-10.723117
26.831105,31.623840,-1.968384,-5.329158,0.331111,-2.502197,-10.400388
26.847427,38.223267,4.753113,-0.606562,0.726888,-2.888992,-11.114104
26.869218,52.429199,3.257751,-1.125361,0.047302,-2.442321,-11.115900
26.887617,59.402466,-4.203796,-1.277949,0.174238,-2.087260,-10.454875
26.905035,66.886902,-1.686096,3.375981,0.114362,-2.724335,-10.020778
26.920934,76.049805,-1.136780,4.978154,-0.066462,-2.677632,-9.848935
26.936833,78.552246,-3.540039,5.260442,-0.281415,-3.034490,-10.041734
26.952899,82.000732,-3.440857,6.778691,-0.183818,-3.303929,-10.139930
26.968830,86.151123,-1.815796,6.931279,-0.302970,-3.528462,-9.522614
26.987616,91.773987,-2.510071,7.671330,-0.774789,-2.778821,-9.547162
27.003597,94.291687,-3.410339,8.792851,-0.253872,-3.373984,-9.168750
27.019601,98.213196,0.236511,6.847356,-0.546663,-4.405638,-9.321432
27.035288,105.049133,1.930237,8.052800,-0.355062,-4.123026,-9.076541
27.051607,110.946655,0.564575,6.999944,0.384401,-4.764293,-8.189186
27.067363,113.403320,-1.495361,6.290410,-0.109572,-5.106182,-9.052591
27.082980,114.639282,-0.061035,6.969426,-0.254471,-5.027146,-8.140088
27.098797,120.140076,0.167847,7.350896,-0.490380,-5.576803,-8.270019
27.114423,133.995056,-0.732422,9.731267,-0.083826,-4.217629,1.721404
27.130098,118.949890,-0.923157,4.123662,0.705333,6.343808,-4.707427
27.145775,112.396240,4.493713,-8.472468,-1.032852,15.523918,-19.817604
27.161568,-68.801880,-6.172180,2.025578,-1.902244,4.521198,0.491562
27.177162,-105.712891,9.742737,12.302373,0.943638,-1.160986,6.880875
27.192734,-53.352356,2.410889,8.556340,1.669927,1.027463,-0.681998
27.208307,-63.110352,5.851746,1.651738,0.134720,-1.006507,1.671708
27.223802,-47.737122,9.201050,11.814092,-2.076482,-19.617605,-19.817604
27.239302,-128.623962,28.152466,20.343756,5.269043,-19.617605,-19.817604
27.254902,-184.257507,6.736755,-0.980403,-7.692204,-19.617605,-19.817604
27.270622,-56.411743,7.781982,-25.539423,-7.291038,-5.447472,-10.663241
27.286277,13.656616,-5.004883,-24.669672,2.529739,-12.094849,-11.266188
27.302012,70.091248,-11.581421,-10.532405,-1.035247,-10.187815,-12.399032
27.317862,141.975403,3.082275,-2.445247,-1.392105,-5.157076,-10.275847
27.335816,101.325989,-7.492065,-1.773860,0.261656,-6.627019,-6.517463
27.352029,71.937561,-0.213623,-4.230525,0.327519,-4.607419,-5.906134
27.367993,61.561584,0.320435,1.796697,0.046703,-5.682783,-5.986367
27.383754,54.016113,-0.480652,3.047917,1.288520,-5.164860,-6.841389
27.399470,35.003662,-2.479553,-0.667598,1.056204,-4.623585,-6.097137
27.415730,12.664795,-4.249573,3.650640,0.011376,-4.331393,-5.961219
27.431445,0.495911,-0.221252,4.329656,-0.158071,-5.313351,-7.300035
27.447170,-6.294250,-1.403809,8.052800,-0.437091,-6.621031,-8.240680
27.462913,-8.140564,1.968384,6.076787,-1.037043,-3.178790,-7.295844
27.478541,-10.162354,-0.457764,5.763982,0.002395,-6.636599,-9.510039
27.494215,17.570496,-2.105713,2.407048,-0.607736,-5.589377,-10.156695
27.510583,45.631409,2.723694,0.019048,-0.149689,-5.173242,-8.929248
27.526293,45.867920,-0.373840,-1.789119,0.326920,-5.963599,-7.441940
27.541906,42.213440,0.686646,-3.780391,0.263452,-4.664899,-7.476069
27.557453,37.872314,-1.396179,-1.422908,0.356858,-6.232440,-8.025726
27.573991,38.307190,0.549316,-4.192378,0.561033,-6.731801,-7.427570
27.589878,40.039062,-0.862122,-1.644160,0.368833,-7.911348,-7.916154
27.605745,47.309875,-0.267029,-2.323176,-0.383203,-4.945715,-7.130588
27.621479,49.781799,-2.349854,-0.743892,0.108375,-6.303691,-7.823347
27.637188,54.534912,-1.815796,1.857732,-0.119751,-8.104147,-7.319794
27.652848,58.341980,2.082825,5.092595,-0.588576,-7.659871,-5.947448
27.668519,50.033569,17.868042,-4.970576,0.196392,-13.610896,-8.046682
27.684209,55.610657,-4.112244,6.442998,-1.208287,-9.993219,-10.825504
27.699989,25.032043,-1.899719,-2.300288,0.350272,-4.534969,-2.174694
27.715948,-34.706116,13.282776,2.368901,-0.580792,-9.884845,-2.505206
27.731611,-65.322876,6.919861,0.804875,-0.183219,-8.274793,-5.584603
27.747293,-65.406799,5.607605,3.826116,0.311353,-10.953023,-5.685194
27.762999,-75.851440,12.260437,1.476262,1.284928,-6.130053,-5.044526
27.778771,-56.945801,-2.494812,-1.033809,-0.453856,-7.760462,-9.744153
27.794365,-37.231445,-1.472473,3.284429,-0.740061,-5.915100,-8.919068
27.810640,-23.750305,-0.564575,3.856633,-0.067659,-6.500682,-7.635338
27.826254,-13.900757,2.639771,-2.223994,0.486788,-2.415976,-4.557139
27.841830,-33.576965,-12.359619,0.789617,-2.014211,-13.346845,-5.744470
27.857438,-153.083801,-3.837585,10.555242,-0.530497,-9.718989,-7.872445
27.873087,-206.054688,1.548767,6.923650,-0.290396,-5.247488,-5.379828
27.888687,-179.679871,-1.609802,4.413579,1.144819,-10.782378,-6.494710
27.904365,-166.976929,0.831604,-1.499202,1.777104,-10.814711,-5.984571
27.920044,-136.932373,-5.233765,-1.323726,-0.525707,-4.082910,-9.808819
27.935814,-133.178711,-4.058838,-0.721003,-1.144221,-2.571054,-9.459744
27.951629,-126.220703,-0.511169,-1.453425,0.506547,0.830473,-9.400468
27.967382,-104.499817,0.152588,-3.078486,-1.163980,2.495012,-9.893842
27.983075,-62.881470,4.020691,-8.312251,-0.376018,1.587898,-8.144279
27.999328,-32.142639,4.493713,-7.839229,-0.461041,1.535806,-10.548880
28.014988,-10.482788,4.119873,-4.329707,-0.134121,-0.703537,-11.845183
28.030703,-11.428833,1.632690,-3.467586,0.788560,-2.199826,-9.171743
28.046330,-7.843018,1.495361,-4.238154,0.859812,-2.182462,-10.097418
28.062057,-19.706726,0.366211,-1.766230,0.004790,-3.368595,-9.171144
28.077790,-25.375366,-1.083374,1.773809,-0.580193,-3.652405,-8.722078
28.093396,-29.174805,-2.189636,3.345464,0.235909,-2.989583,-8.860990
28.109007,-37.750244,-1.502991,4.772161,0.208367,-3.093766,-9.308259
28.124620,-44.219971,-0.022888,5.641912,0.103585,-3.811075,-9.478905
28.140366,-48.423767,-2.380371,4.299138,-0.128134,-2.950065,-9.619612
28.156162,-46.745300,-2.914429,3.391240,-0.160466,-2.175875,-9.813608
28.172206,-45.890808,0.404358,1.888250,-0.320933,-1.787882,-12.110432
28.188191,-33.744812,7.781982,1.811956,-0.984952,-1.757346,-11.514671
28.203971,-7.736206,7.072449,-1.956965,-0.026944,-2.098636,-10.586002
28.219651,2.296448,0.984192,-9.227778,-0.143102,-1.314866,-11.053630
28.235256,2.136230,-1.251221,-8.953120,-0.407752,-2.371069,-10.823109
28.250912,9.582520,3.967285,-6.786372,0.099393,-3.138673,-10.791974
