Timestamp,Gyro_X_dps,Gyro_Y_dps,Gyro_Z_dps,Accel_X_mps2,Accel_Y_mps2,Accel_Z_mps2
0.005531,0.396729,-0.122070,0.080083,-0.107776,7.357500,6.198894
0.021213,0.305176,-0.373840,-0.041987,-0.105980,7.336544,6.193505
0.036806,0.282288,-0.221252,0.087712,-0.080233,7.477251,6.201887
0.052391,0.343323,-0.137329,-0.011470,-0.100591,7.206614,6.186918
0.068011,0.320435,-0.267029,-0.019099,-0.084424,7.365882,6.199492
0.083609,0.244141,-0.267029,0.003789,-0.125140,7.357500,6.202486
0.099222,0.328064,-0.190735,-0.080134,-0.101190,7.346723,6.173746
0.114808,0.289917,-0.236511,0.019048,-0.085023,7.209009,6.198894
0.130391,0.228882,-0.259399,0.072454,-0.113763,7.214397,6.194103
0.145987,0.335693,-0.221252,-0.011470,-0.113763,7.358697,6.188715
0.161559,0.350952,-0.228882,0.179265,-0.105381,7.508386,6.187517
0.177123,0.335693,-0.259399,0.057195,-0.086819,7.215595,6.188116
0.192734,0.267029,-0.236511,-0.034358,-0.098196,7.333550,6.195899
0.208331,0.457764,-0.129700,0.080083,-0.108375,7.358697,6.200091
0.223935,0.366211,-0.335693,-0.072505,-0.114961,7.506590,6.185122
0.239543,0.442505,-0.137329,0.095342,-0.091610,7.497010,6.207276
0.255122,0.350952,-0.350952,0.019048,-0.094603,7.376660,6.197097
0.270735,0.488281,-0.228882,0.034307,-0.128134,7.351512,6.201288
0.286314,0.312805,-0.122070,0.034307,-0.111368,7.367080,6.180332
0.301893,0.335693,-0.175476,0.087712,-0.110171,7.351512,6.200690
0.317486,0.358582,-0.167847,-0.034358,-0.108375,7.337741,6.211467
0.333086,0.335693,-0.244141,0.026677,-0.104782,7.347920,6.237813
0.348693,0.350952,-0.205994,0.141118,-0.108375,7.367080,6.200690
0.364280,0.274658,-0.183105,0.003789,-0.109572,7.353908,6.215060
0.379845,0.305176,-0.160217,-0.095393,-0.102986,7.377259,6.190511
0.395313,0.396729,0.015259,0.011418,-0.100591,7.385043,6.205480
0.410767,0.343323,-0.061035,0.125859,-0.106578,7.378457,6.197696
0.426304,0.274658,-0.320435,0.003789,-0.100591,7.352710,6.194702
0.441894,0.274658,-0.267029,0.026677,-0.102986,7.364086,6.201887
0.457479,0.305176,-0.198364,-0.026729,-0.092807,7.366481,6.173147
0.473062,0.450134,-0.289917,0.019048,-0.105381,7.332352,6.197696
0.488645,0.373840,-0.404358,0.003789,-0.118553,7.359895,6.213862
0.504226,0.381470,-0.198364,0.057195,-0.116757,7.337741,6.204282
0.519809,0.389099,-0.297546,0.080083,-0.117356,7.383246,6.204881
0.535389,0.320435,-0.183105,0.003789,-0.107776,7.367679,6.203683
0.550986,0.511169,-0.259399,0.041936,-0.098795,7.325167,6.205480
0.566583,0.328064,-0.297546,0.148748,-0.121547,7.357500,6.194103
0.582166,0.488281,-0.244141,-0.011470,-0.138312,7.365882,6.173746
0.597744,0.328064,-0.312805,0.064824,-0.101190,7.374864,6.181530
0.613348,0.335693,-0.328064,0.087712,-0.112566,7.382049,6.185721
0.628946,0.396729,-0.320435,0.110601,-0.117356,7.338939,6.195301
0.644542,0.251770,-0.106812,0.080083,-0.107776,7.360494,6.197696
0.660135,0.473022,-0.152588,0.049565,-0.101788,7.355704,6.194103
0.675744,0.328064,-0.167847,0.194524,-0.085023,7.336544,6.203085
0.691342,0.328064,-0.282288,0.049565,-0.093406,7.340136,6.209671
0.706939,0.549316,-0.228882,-0.019099,-0.119152,7.337142,6.188116
0.722529,0.236511,-0.205994,0.011418,-0.105381,7.375463,6.210868
0.738122,0.450134,-0.259399,0.110601,-0.104183,7.356302,6.221047
0.753718,0.251770,-0.221252,-0.011470,-0.105980,7.347321,6.198295
0.769315,0.343323,-0.183105,0.041936,-0.096998,7.364086,6.172548
0.784908,0.427246,-0.320435,0.034307,-0.090412,7.365882,6.182727
0.800510,0.236511,-0.244141,-0.095393,-0.118553,7.359895,6.193505
0.816113,0.320435,-0.267029,0.011418,-0.088616,7.335346,6.190511
0.831713,0.312805,-0.366211,0.019048,-0.102387,7.346124,6.210868
0.847299,0.343323,-0.190735,0.118230,-0.111967,7.398814,6.194702
0.862901,0.389099,-0.221252,0.034307,-0.106578,7.362889,6.201887
0.878539,0.259399,-0.236511,0.064824,-0.093406,7.341333,6.201887
0.894142,0.259399,-0.305176,-0.003840,-0.092208,7.352710,6.197097
0.909716,0.236511,-0.236511,0.064824,-0.117356,7.359895,6.210270
0.925280,0.549316,-0.221252,-0.064875,-0.101788,7.342531,6.186918
0.940859,0.389099,-0.244141,0.041936,-0.104183,7.370673,6.207875
0.956420,0.343323,-0.183105,0.019048,-0.105381,7.340735,6.188116
0.972022,0.320435,-0.129700,0.064824,-0.128134,7.376660,6.185721
0.987585,0.419617,-0.190735,0.087712,-0.117356,7.362290,6.188715
1.003214,0.419617,-0.274658,0.133489,-0.111967,7.363488,6.205480
1.018785,0.198364,-0.289917,-0.034358,-0.108375,7.368278,6.192906
1.034387,0.274658,-0.274658,-0.087764,-0.101190,7.355105,6.207875
1.049957,0.381470,-0.137329,-0.026729,-0.102387,7.504794,6.202486
1.065536,0.289917,-0.213623,0.026677,-0.113763,7.372469,6.197097
1.081089,0.381470,-0.297546,0.064824,-0.111967,7.344327,6.203683
1.096655,0.442505,-0.045776,-0.057246,-0.098196,7.359895,6.206677
1.112214,0.312805,-0.205994,-0.034358,-0.092208,7.509584,6.193505
1.127764,0.396729,-0.297546,0.026677,-0.074844,7.508386,6.207276
1.143323,0.442505,-0.312805,-0.041987,-0.104183,7.492220,6.194702
1.158891,0.350952,-0.205994,0.064824,-0.127535,7.368278,6.219850
1.174444,0.328064,-0.183105,0.019048,-0.105980,7.382049,6.185721
1.189996,0.297546,-0.236511,0.125859,-0.098795,7.360494,6.182727
1.205557,0.236511,-0.259399,-0.019099,-0.098196,7.371870,6.180332
1.221113,0.350952,-0.205994,0.057195,-0.112566,7.370673,6.200690
1.236667,0.442505,-0.205994,-0.019099,-0.085023,7.393425,6.224640
1.252247,0.251770,-0.152588,0.041936,-0.083826,7.356302,6.199492
1.267818,0.282288,-0.190735,0.049565,-0.088017,7.339537,6.201887
1.283396,0.312805,-0.198364,0.095342,-0.108375,7.351512,6.207276
1.298966,0.366211,-0.236511,0.102971,-0.106578,7.382648,6.084531
1.314528,0.297546,-0.137329,0.141118,-0.092807,7.376660,6.191709
1.330093,0.312805,-0.366211,0.049565,-0.104183,7.374265,6.212066
1.345644,0.473022,-0.228882,0.019048,-0.114961,7.355105,6.193505
1.361193,0.534058,-0.335693,-0.087764,-0.123942,7.375463,6.195301
1.376755,0.312805,-0.114441,-0.019099,-0.115560,7.340735,6.182128
1.392319,0.274658,-0.152588,0.003789,-0.096998,7.363488,6.191110
1.407904,0.274658,-0.190735,0.026677,-0.104782,7.346723,6.211467
1.423507,0.305176,-0.267029,0.064824,-0.099393,7.352710,6.216257
1.439089,0.411987,-0.305176,0.026677,-0.087418,7.372469,6.229430
1.454679,0.259399,-0.259399,0.072454,-0.090412,7.351512,6.203085
1.470283,0.289917,-0.236511,-0.080134,-0.078437,7.358697,6.191110
1.485876,0.267029,-0.221252,-0.003840,-0.127535,7.344327,6.225837
1.501485,0.358582,-0.305176,0.049565,-0.117955,7.357500,6.201887
1.517081,0.366211,-0.320435,0.102971,-0.107177,7.352710,6.195301
1.532682,0.343323,-0.152588,0.049565,-0.138312,7.365882,6.209072
1.548295,0.411987,-0.282288,0.026677,-0.105381,7.339537,6.200690
1.563903,0.320435,-0.343323,0.011418,-0.116158,7.358697,6.219850
1.579511,0.373840,-0.213623,0.087712,-0.087418,7.341932,6.203085
1.595110,0.381470,-0.205994,0.026677,-0.117955,7.334747,6.200690
1.610709,0.411987,-0.198364,-0.003840,-0.128134,7.367080,6.188715
1.626309,0.450134,-0.221252,0.064824,-0.119751,7.355704,6.203085
1.641907,0.221252,-0.259399,0.049565,-0.087418,7.374864,6.179134
1.657515,0.251770,-0.312805,0.011418,-0.102387,7.356302,6.194702
1.673114,0.236511,-0.350952,0.011418,-0.108375,7.345525,6.192307
1.688714,0.381470,-0.144958,0.011418,-0.089813,7.344926,6.207875
1.704311,0.396729,-0.289917,0.049565,-0.085622,7.344926,6.191110
1.719915,0.366211,-0.289917,0.019048,-0.136516,7.361093,6.198894
1.735513,0.373840,-0.312805,0.049565,-0.120350,7.358099,6.206079
1.751111,0.259399,-0.335693,0.026677,-0.118553,7.352111,6.189912
1.766709,0.228882,-0.137329,0.064824,-0.101190,7.353908,6.192906
1.782300,0.190735,-0.282288,-0.064875,-0.119751,7.364685,6.199492
1.797899,0.381470,-0.259399,0.011418,-0.107776,7.337142,6.195899
1.813498,0.411987,-0.228882,0.026677,-0.112566,7.346124,6.201288
1.829091,0.312805,-0.137329,-0.026729,-0.103585,7.356302,6.186319
1.844683,0.427246,-0.167847,0.072454,-0.077838,7.368278,6.189313
1.860278,0.228882,-0.183105,-0.019099,-0.074844,7.344327,6.181530
1.875871,0.434875,-0.190735,-0.026729,-0.109572,7.398215,6.204282
1.891463,0.228882,-0.350952,0.003789,-0.073647,7.379654,6.200690
1.907060,0.244141,-0.267029,0.080083,-0.129331,7.343729,6.197097
1.922657,0.473022,-0.244141,0.171636,-0.086819,7.358099,6.188715
1.938251,0.167847,-0.328064,0.041936,-0.103585,7.374864,6.178536
1.953861,0.244141,-0.213623,0.019048,-0.117955,7.356302,6.159975
1.969453,-0.030518,-0.381470,0.057195,-0.126936,7.353309,6.163567
1.985056,-0.358582,-0.267029,0.225042,-0.095801,7.352710,6.199492
2.000662,-0.106812,1.876831,0.286077,-0.064067,7.374265,6.194702
2.016252,-0.236511,-0.038147,-0.148799,-0.037123,7.392827,6.224041
2.031840,-0.244141,-0.358582,-0.576045,-0.138312,7.344327,6.223443
2.047403,-0.259399,-0.610352,-0.392939,-0.108375,7.207212,6.221646
2.062991,-0.534058,-0.091553,0.171636,-0.126936,7.492819,6.203683
2.078590,-0.190735,-0.015259,0.209783,-0.165256,7.495812,6.236016
2.094198,-0.099182,-0.289917,0.164006,-0.057480,7.329359,6.234220
2.109796,0.122070,-0.305176,0.164006,-0.136516,7.205416,6.174943
2.125395,-0.167847,0.167847,0.217412,-0.051493,7.346723,6.165363
2.140985,-0.595093,-0.045776,0.118230,-0.137714,7.492220,6.155783
2.156586,-0.915527,-0.083923,-0.019099,-0.086221,7.377259,6.187517
2.172190,-1.312256,-0.259399,-0.186946,-0.128732,7.404802,6.223443
2.187801,-1.068115,-0.274658,-0.232722,-0.128134,7.388635,6.191709
2.203399,-0.846863,-0.366211,-0.141169,-0.099393,7.325167,6.240806
2.218996,-0.488281,0.144958,0.072454,-0.080832,7.255712,6.261164
2.234593,-0.740051,-0.404358,-0.202205,-0.179626,7.271878,6.184523
2.250194,-1.647949,-0.366211,-0.232722,-0.052690,7.328161,6.159975
2.265789,-1.815796,-0.114441,-0.072505,-0.116158,7.363488,6.223443
2.281363,-1.892090,-0.320435,-0.240352,-0.122745,7.410191,6.295892
2.296958,-1.373291,-0.244141,-0.293757,-0.141306,7.244335,6.224640
2.312549,-1.403809,0.030518,-0.164058,-0.122146,7.327562,6.202486
2.328148,-1.747131,-0.114441,0.102971,-0.137714,7.330556,6.122253
2.343733,-2.738953,-0.259399,0.156377,-0.089813,7.445517,6.138419
2.359323,-3.684998,0.022888,0.301335,-0.089813,7.367080,6.183925
2.374917,-4.295349,-0.038147,0.286077,-0.135319,7.414980,6.211467
2.390532,-4.432678,-0.198364,0.141118,-0.080233,7.392827,6.267750
2.406173,-4.463196,-0.137329,-0.064875,-0.092208,7.345525,6.247992
2.421777,-4.882812,0.068665,-0.324275,-0.085622,7.256310,6.202486
2.437385,-5.989075,0.000000,-0.263240,-0.137115,7.238348,6.195301
2.452977,-7.110596,-0.053406,-0.209834,-0.102986,7.276668,6.182727
2.468560,-7.942200,0.030518,0.034307,-0.159868,7.319180,6.251584
2.484160,-8.514404,-0.007629,0.331853,-0.134720,7.373666,6.271343
2.499767,-9.010315,0.183105,0.209783,-0.108973,7.317383,6.251584
2.515368,-10.025024,0.015259,-0.087764,-0.098196,7.261699,6.247992
2.530969,-11.138916,-0.152588,-0.309016,-0.055684,7.189848,6.233621
2.546567,-12.939453,-0.122070,-0.370051,-0.164059,7.181466,6.210868
2.562165,-14.991760,0.289917,0.247930,-0.191602,7.098838,6.293497
2.577759,-16.136169,-0.076294,0.675176,-0.216749,7.347920,6.400674
2.593363,-16.860962,0.083923,0.415776,-0.040715,7.166497,6.548566
2.608973,-17.051697,-0.312805,-0.392939,-0.020358,7.043154,6.573714
2.624574,-17.379761,-0.648499,-1.232173,-0.110171,6.331234,6.447976
2.640177,-19.226074,-0.610352,-1.827266,-0.119751,6.941365,6.610837
2.655778,-20.561218,-0.648499,-2.193477,-0.159868,6.831793,6.729390
2.671381,-21.057129,-0.534058,-2.010371,-0.181423,6.915020,6.865308
2.686986,-20.111084,-0.213623,-2.071406,-0.295785,6.410270,6.988651
2.702591,-19.943237,-0.122070,-1.552607,-0.308359,6.921008,6.934763
2.718191,-20.011902,-0.213623,0.057195,-0.023950,6.673123,6.891054
2.733790,-20.187378,0.251770,-0.034358,-0.290396,6.597680,6.952726
2.749396,-20.217896,0.122070,0.698064,-0.178429,6.362370,7.016194
2.764994,-20.507812,0.755310,1.224492,-0.049098,6.465954,7.304794
2.780596,-20.896912,0.839233,0.987981,0.013771,6.005511,7.283238
2.796196,-20.126343,0.625610,0.301335,-0.271236,5.968389,7.291022
2.811795,-22.232056,-0.282288,-1.232173,-0.008383,6.514453,7.589801
2.827397,-20.736694,-0.152588,-2.552058,-0.031135,6.408473,7.401792
2.842995,-20.019531,-0.274658,-2.109553,-0.202978,6.286926,7.664645
2.858596,-15.670776,0.648499,-1.194026,-0.171244,6.342012,7.409576
2.874202,-17.868042,0.045776,-0.049617,0.000599,6.549780,7.243721
2.889801,-18.424988,0.587463,-0.377681,-0.083227,6.333030,7.458673
2.905424,-18.028259,-0.686646,-1.262690,-0.208965,6.093528,7.598184
2.921004,-17.433167,-0.236511,-0.751521,-0.120948,6.003117,7.482624
2.936587,-17.890930,0.015259,-0.522639,-0.029339,6.048622,7.376046
2.952165,-18.943787,-0.038147,-1.934077,-0.128134,6.049819,7.737095
2.967739,-18.608093,0.183105,-1.865413,-0.198787,5.920488,7.800563
2.983310,-16.883850,-0.251770,-0.797297,-0.301174,5.818700,7.884388
2.998898,-14.755249,-0.465393,-0.293757,-0.370031,5.600753,7.877802
3.014457,-14.221191,-0.595093,0.263188,-0.292791,5.515730,7.715539
3.030041,-13.595581,-0.320435,1.026128,-0.137714,5.546267,7.820920
3.045629,-12.321472,-0.091553,0.682805,-0.133522,5.570816,7.931091
3.061230,-10.238647,-0.137329,0.415776,-0.108973,5.572013,8.153828
3.076839,-7.225037,-0.801086,0.598882,-0.086819,5.456453,8.267591
3.092448,-4.547119,-0.671387,0.522588,-0.289199,5.432503,8.065811
3.108057,-3.356934,-1.190186,0.202153,-0.216749,5.528304,7.841278
3.123670,-3.318787,-1.335144,-1.140620,-0.001198,5.434898,7.844272
3.139262,-2.929688,-0.625610,-1.705195,0.140109,5.695356,7.837087
3.154856,-1.335144,0.030518,-2.368953,0.081431,5.655838,8.142452
3.170450,1.556396,-1.396179,-2.368953,-0.021555,5.497767,7.987374
3.186036,-0.534058,-2.510071,-4.116084,-0.331111,5.467231,8.041861
3.201621,-3.425598,-1.510620,-4.436519,-0.382006,5.152884,8.045453
3.217193,-9.910583,-0.968933,-4.535701,-0.193997,5.272635,8.035275
3.232785,-13.755798,-1.579285,-5.504634,-0.172441,5.090614,7.897561
3.248389,-17.028809,-1.976013,-6.176021,-0.192200,4.990622,7.944264
3.263991,-20.393372,-2.807617,-6.145503,-0.374821,5.008584,7.903549
3.279593,-24.162292,-3.646851,-4.314448,-0.455652,5.342690,7.759848
3.295196,-24.353027,-2.883911,-2.582576,-0.376617,5.310956,7.952646
3.310788,-20.660400,-3.608704,-0.309016,-0.476609,6.133645,7.656263
3.326386,-10.444641,-1.068115,1.651738,-0.365839,6.206693,7.952048
3.341988,-4.974365,-1.235962,2.445195,-0.112566,6.105504,7.981387
3.357590,-2.471924,-1.426697,2.460454,-0.079036,5.896538,8.097546
3.373176,-1.045227,-0.625610,1.796697,-0.147294,5.458250,8.158618
3.388772,-1.190186,-0.335693,0.461553,-0.010778,5.071454,8.047849
3.404360,-1.686096,-0.549316,0.041936,-0.011376,4.763095,8.068805
3.419960,-1.739502,-0.198364,-0.560786,-0.171244,4.763694,8.140656
3.435560,-2.235413,0.099182,-0.827815,-0.149689,4.992418,8.107724
3.451166,-2.235413,-1.930237,-0.530269,-0.186213,5.347480,8.170593
3.466772,-1.258850,0.175476,-0.286128,-0.249082,5.551056,8.329862
3.482386,-0.045776,-0.061035,0.324224,-0.288600,5.584587,8.242444
3.497990,0.495911,-0.328064,0.621770,-0.239502,5.433102,8.201130
3.513597,0.923157,-0.175476,0.202153,-0.106578,5.258265,8.078385
3.529202,0.518799,-0.534058,-0.080134,-0.120948,5.094206,8.004139
3.544805,-0.244141,0.175476,-0.583674,-0.129331,4.981042,8.059225
3.560409,-1.411438,-0.038147,-0.400569,-0.238304,5.136119,7.938276
3.576009,-2.700806,-0.068665,0.408147,-0.289199,5.398973,8.016114
3.591618,-3.929138,-0.183105,1.132939,-0.277822,5.613327,7.881993
3.607224,-5.264282,-0.747681,1.476262,-0.195793,5.689369,8.055034
3.622824,-6.095886,-0.976562,1.193975,-0.156874,5.584587,8.176580
3.638429,-6.317139,-0.480652,0.629399,-0.091610,5.457052,8.137063
3.654026,-6.927490,-0.122070,-0.064875,-0.077838,5.292395,8.018510
3.669622,-8.560181,0.106812,-0.682856,-0.110171,5.117558,7.950252
3.685221,-10.871887,-0.152588,-0.576045,-0.202379,5.064867,7.965819
3.700835,-12.878418,-0.259399,-0.072505,-0.310754,5.245691,8.052639
3.716446,-13.862610,-0.106812,0.499700,-0.261656,5.322931,8.172390
3.732057,-14.335632,-0.213623,0.583623,-0.192799,5.202581,8.271783
3.747670,-14.503479,-0.549316,0.606511,-0.138911,5.146298,8.405305
3.763278,-13.412476,-0.717163,0.461553,-0.146695,5.036726,8.447817
3.778877,-12.489319,-0.381470,-0.331904,-0.023351,4.780459,8.279567
3.794479,-12.763977,0.038147,-1.194026,-0.055085,4.734953,8.255616
3.810078,-13.862610,-0.091553,-1.522090,-0.188009,4.502637,8.351418
3.825677,-14.228821,-0.015259,-1.453425,-0.166454,4.663702,8.398120
3.841277,-13.717651,-0.167847,-0.598933,-0.253872,4.688251,8.561581
3.856866,-12.054443,-0.297546,0.255559,-0.276026,4.772675,8.591518
3.872488,-10.215759,-0.297546,1.270269,-0.271835,4.706812,8.628042
3.888087,-9.674072,-1.052856,2.048467,-0.187410,4.559518,8.652591
3.903689,-9.109497,-0.373840,2.140019,-0.170645,4.470304,8.306511
3.919297,-9.895325,-0.251770,2.674077,-0.114362,4.305048,8.504100
3.934906,-10.505676,-1.129150,2.300237,-0.180824,4.140989,8.542420
3.950516,-9.170532,-0.999451,1.949285,-0.110171,4.202062,8.539426
3.966118,-9.994507,-1.800537,1.888250,-0.188009,4.369713,8.669356
3.981719,-8.682251,-1.159668,2.056096,-0.184417,4.349356,8.631036
3.997326,-8.865356,-1.266479,2.216313,-0.204774,4.543951,8.632234
4.012907,-8.522034,-0.511169,1.766179,-0.004790,4.742139,8.893291
4.028513,-6.423950,-0.717163,1.148198,-0.077239,4.611610,8.863952
4.044101,-5.287170,-0.267029,0.186895,-0.053289,4.558920,8.748392
4.059691,-5.119324,-0.160217,-0.270869,-0.001198,4.467909,8.567568
4.075303,-6.088257,-0.129700,-1.041438,-0.095801,4.372108,8.445422
4.090919,-7.453918,-0.244141,-1.468684,-0.056882,4.274511,8.486736
4.106528,-8.399963,-0.205994,-1.148250,-0.175435,4.308640,8.622054
4.122135,-8.346558,-0.167847,-0.583674,-0.283810,4.404441,8.710072
4.137738,-8.255005,-0.450134,0.164006,-0.204774,4.473897,8.768150
4.153335,-7.957458,-0.244141,0.659917,-0.183219,4.428990,8.781922
4.168931,-7.835388,-0.625610,0.675176,-0.182021,4.336183,8.748990
4.184531,-7.835388,-0.488281,0.850652,0.001198,4.261937,8.695103
4.200136,-8.247375,-0.335693,-0.041987,0.014969,4.112847,8.703485
4.215745,-8.644104,-0.175476,-0.476863,-0.070054,4.085903,8.729831
4.231343,-9.101868,0.068665,-0.949885,-0.101190,4.084107,8.762163
4.246912,-9.269714,0.129700,-1.071956,-0.110171,4.097878,8.825032
4.262502,-8.697510,-0.038147,-0.721003,-0.217947,4.092490,8.856767
4.278094,-8.277893,0.061035,-0.141169,-0.151485,4.011658,8.932808
4.293688,-7.545471,0.022888,0.080083,-0.153880,3.999683,8.912451
4.309285,-6.851196,-0.312805,2.239202,-0.273631,4.048182,8.887901
4.324881,-6.500244,-0.335693,0.293706,-0.143701,3.885919,8.868143
4.340453,-6.317139,-0.358582,0.843022,-0.067659,3.812871,8.798088
4.356051,-5.393982,-1.251221,-0.347163,-0.151485,3.881129,8.679535
4.371649,-4.791260,0.358582,-0.942256,-0.003593,3.700904,9.111238
4.387250,-2.960205,-0.045776,-1.033809,-0.295186,3.876339,8.925024
4.402846,-2.090454,0.167847,-1.209285,-0.416135,3.852389,9.074713
4.418454,-1.159668,-0.579834,-0.621821,-0.192799,3.767964,8.934006
4.434055,-0.289917,-0.152588,0.263188,-0.217947,3.752995,8.987894
4.449660,0.617981,-0.625610,1.003240,-0.293989,3.787125,8.980110
4.465260,1.304626,-0.160217,1.430486,-0.027543,3.891308,8.905865
4.480845,1.174927,-0.701904,1.461003,-0.106578,3.973337,8.820242
4.496451,0.549316,-0.534058,0.904058,-0.077239,3.993695,8.857964
4.512050,0.488281,-0.335693,0.293706,-0.014370,3.996689,8.923228
4.527656,0.793457,-0.030518,-0.385310,-0.086819,3.991300,8.958554
4.543250,1.106262,0.129700,-0.736262,-0.140109,3.961961,8.872334
4.558849,1.274109,0.183105,-0.980403,-0.151485,3.883524,8.973523
4.574452,1.434326,0.221252,-0.904109,-0.202379,3.872148,8.895086
4.590050,1.617432,-0.175476,-0.522639,-0.143102,3.858377,8.853174
4.605645,1.403809,0.076294,-0.301387,-0.202379,3.884722,8.905865
4.621241,2.021790,-0.251770,0.255559,-0.178429,3.897295,8.880716
4.636846,2.540588,-0.343323,0.713323,-0.223934,3.942801,8.897482
4.652451,2.738953,-0.617981,1.056646,-0.151485,4.042194,8.870538
4.668055,2.639771,-0.373840,1.224492,-0.101190,4.072132,8.809464
4.683639,2.128601,-0.419617,0.797246,-0.076641,4.108656,8.746595
4.699230,1.296997,-0.457764,0.568364,-0.100591,4.076922,8.799286
4.714812,0.572205,-0.289917,0.179265,-0.073647,4.066743,8.804076
4.730409,0.198364,-0.167847,-0.125911,-0.057480,4.053571,8.834014
4.746008,-0.328064,-0.083923,-0.354792,-0.131127,4.046984,8.820841
4.761617,-0.396729,-0.045776,-0.667598,-0.128134,4.033213,8.852575
4.777221,-0.732422,0.053406,-0.461604,-0.007784,4.079916,8.760366
4.792825,-1.243591,-0.053406,-0.110652,-0.193997,4.051775,8.790903
4.808414,-1.747131,-0.175476,-0.080134,-0.176034,4.017645,8.841199
4.824011,-1.937866,-0.205994,0.186895,-0.159868,4.009263,8.849582
4.839615,-2.349854,-0.213623,0.125859,-0.116757,4.003874,8.865149
4.855222,-2.685547,-0.221252,0.156377,-0.011376,4.025429,8.790903
4.870822,-3.410339,-0.244141,0.308965,-0.147892,4.020639,8.828625
4.886425,-3.868103,-0.343323,0.263188,-0.088616,3.975134,8.849582
4.902021,-4.096985,-0.343323,0.125859,-0.152084,3.988306,8.845989
4.917619,-4.508972,-0.244141,-0.057246,-0.117356,3.958967,8.897482
4.933221,-4.615784,-0.190735,-0.156428,-0.085023,3.935017,8.898081
4.948818,-4.844666,-0.122070,-0.446345,-0.085622,3.923641,8.885507
4.964425,-5.378723,-0.091553,-0.606562,-0.105980,3.891907,8.892093
4.980023,-5.516052,-0.053406,-0.721003,-0.183219,3.827840,8.886106
4.995622,-5.737305,-0.083923,-0.515010,-0.174238,3.757786,8.922629
5.011221,-5.844116,-0.137329,-0.103022,-0.205373,3.731441,8.939395
5.026829,-5.531311,-0.198364,0.118230,-0.197589,3.758983,9.010647
5.042429,-5.348206,-0.495911,0.614141,-0.180824,3.776347,9.039986
5.058027,-4.989624,-0.373840,0.568364,-0.140109,3.773353,9.045374
5.073625,-4.776001,-0.343323,0.347112,-0.137714,3.758384,8.989091
5.089226,-4.768372,-0.450134,0.484441,-0.129331,3.709885,8.958554
5.104826,-4.821777,-0.236511,0.186895,-0.085622,3.688330,8.919037
5.120433,-5.020142,-0.236511,-0.095393,-0.051493,3.651806,8.971727
5.136031,-5.065918,-0.198364,-0.446345,-0.062869,3.632047,9.058547
5.151631,-4.882812,-0.267029,-0.583674,-0.083826,3.582949,9.045374
5.167232,-4.051208,-0.091553,-0.659968,-0.137714,3.616479,9.068726
5.182835,-3.410339,-1.815796,-0.431086,-0.160466,3.610492,9.090879
5.198443,-2.983093,-0.114441,0.148748,-0.163460,3.558999,9.079503
5.214049,-2.738953,-0.259399,0.476812,-0.199984,3.536246,9.002264
5.229658,-2.601624,-0.442505,0.713323,-0.118553,3.533252,8.989690
5.245254,-2.449036,-0.541687,0.736211,-0.125739,3.567980,9.033399
5.260856,-2.410889,-0.473022,0.392888,-0.152682,3.601511,9.050763
5.276436,-2.136230,-0.503540,0.141118,-0.062271,3.581752,9.095071
5.292035,-1.640320,-0.259399,-0.324275,-0.118553,3.599714,9.071120
5.307631,-1.274109,0.129700,-0.377681,-0.105381,3.578159,9.044177
5.323230,-1.312256,0.022888,-0.484492,-0.128732,3.573968,9.017233
5.338822,-1.548767,-0.190735,-0.240352,-0.222737,3.541635,8.992085
5.354428,-1.708984,-0.228882,0.194524,-0.197589,3.517086,9.059744
5.370026,-1.350403,-0.350952,0.263188,-0.174836,3.484155,9.114830
5.385624,-0.846863,-0.480652,0.476812,-0.120948,3.485951,9.083096
5.401221,-0.511169,-0.427246,0.720952,-0.123942,3.372188,9.072917
5.416833,-0.488281,-0.411987,0.514959,-0.125739,3.665577,9.077108
5.432433,-0.244141,-0.381470,0.370000,-0.098795,3.676954,9.044775
5.448032,-0.274658,-0.221252,-0.049617,-0.085622,3.376977,9.094472
5.463619,0.007629,-0.045776,-0.293757,-0.105381,3.544629,9.106447
5.479219,0.190735,-0.106812,-0.431086,-0.109572,3.529660,9.120817
5.494828,0.457764,-0.015259,-0.583674,-0.172441,3.372786,9.078305
5.510422,0.625610,-0.068665,-0.232722,-0.205972,3.505111,9.061541
5.526024,0.747681,-0.305176,-0.057246,-0.180824,3.667972,9.054955
5.541628,0.686646,-0.259399,0.148748,-0.164059,3.536246,9.056151
5.557216,0.671387,-0.221252,0.270818,-0.124541,3.545826,9.050763
5.572809,0.808716,-0.274658,0.209783,-0.136516,3.577560,9.058547
5.588407,0.679016,-0.129700,0.148748,-0.152084,3.563789,9.078305
5.604007,0.724792,-0.251770,0.034307,-0.113763,3.587141,9.057948
5.619594,0.625610,0.022888,-0.225093,-0.114961,3.597319,9.007053
5.635204,0.129700,-0.267029,-0.171687,-0.107776,3.581752,9.008251
5.650795,-0.183105,-0.305176,-0.186946,-0.141905,3.582350,9.050763
5.666398,-0.457764,-0.244141,-0.125911,-0.157473,3.593128,9.032801
5.681982,-0.587463,-0.244141,0.278447,-0.157473,3.576363,9.035794
5.697591,-0.534058,-0.221252,2.300237,-0.164658,3.586542,9.039387
5.713200,-0.846863,-0.251770,0.263188,-0.104782,3.592529,9.022621
5.728792,-1.167297,-0.343323,0.209783,-0.126936,3.617078,9.042979
5.744395,-1.502991,-0.205994,0.095342,-0.117356,3.549419,9.118423
5.759997,-1.396179,-0.076294,-0.041987,-0.126337,3.561394,9.072318
5.775622,-1.441956,-0.152588,-0.270869,-0.144300,3.530858,9.029208
5.791188,-1.541138,-0.038147,-0.186946,-0.204175,3.503914,9.066331
5.806815,-1.495361,0.083923,0.148748,-0.164059,3.482957,9.045374
5.822389,-1.754761,-0.198364,0.263188,-0.168849,3.506309,9.056750
5.837954,-1.892090,-0.198364,0.362371,-0.128134,3.538043,9.079503
5.853550,-1.937866,-0.251770,0.209783,-0.117356,3.486550,9.103454
5.869125,-1.663208,-0.366211,-0.034358,-0.112566,3.528462,9.171711
5.884749,-1.464844,-0.312805,-0.186946,-0.205373,3.550617,9.051362
5.900356,-1.213074,-0.144958,-0.225093,-0.140707,3.460204,9.142971
5.915945,-1.014709,-0.106812,-0.591304,-0.115560,3.427872,9.075911
5.931536,-0.679016,-0.297546,-0.621821,-0.162861,3.388354,9.086089
5.947123,-0.610352,-0.152588,-0.194575,-0.246687,3.403922,9.010647
5.962706,-0.816345,-0.450134,0.064824,-0.211959,3.473976,9.069324
5.978299,-1.136780,-0.221252,0.186895,-0.168250,3.557801,9.037590
5.993886,-1.632690,-0.328064,0.484441,-0.186812,3.525469,9.089682
6.009478,-1.510620,-0.373840,0.591252,-0.143102,3.535648,9.130996
6.025069,-1.533508,-0.289917,0.545476,-0.112566,3.423680,9.290265
6.040645,-1.083374,-0.083923,0.125859,-0.089813,3.310516,9.126206
6.056214,-0.747681,-0.061035,-0.392939,-0.026345,3.194357,9.074115
6.071804,-0.915527,0.083923,-0.614192,-0.167053,3.341651,9.049565
6.087395,-0.961304,0.022888,-1.102473,-0.063468,3.453618,9.030405
6.102991,-1.655579,0.122070,-1.438166,-0.085023,3.555407,9.099262
6.118553,-1.266479,0.099182,-0.705745,-0.267643,3.545826,9.269907
6.134146,-0.228882,0.335693,-0.225093,-0.216151,3.467988,9.247154
6.149733,0.282288,0.015259,-0.415828,-0.143102,3.520080,8.925024
6.165314,-1.754761,0.793457,-0.217463,-0.050295,3.437452,8.971727
6.180893,-1.609802,-0.732422,0.225042,-0.424517,3.527265,8.728034
6.196479,-3.211975,-0.183105,0.316594,-0.274828,3.109933,9.249550
6.212051,-2.769470,0.083923,-0.011470,-0.058678,3.306324,9.366306
6.227664,-1.716614,-0.801086,-0.247981,-0.004790,3.604504,9.314215
6.243278,-1.556396,0.144958,0.095342,0.060474,3.894302,9.073516
6.258877,-2.716064,0.244141,-0.095393,-0.061073,3.581752,9.033998
6.274456,-3.707886,0.083923,-0.461604,-0.268841,3.503914,9.050164
6.290046,-4.219055,-0.076294,-0.553157,-0.168849,3.357219,9.120817
6.305633,-4.013062,-0.106812,-1.071956,-0.070054,3.160827,9.123212
6.321212,-4.081726,0.122070,-1.415278,-0.102986,3.051255,9.131595
6.336794,-3.829956,0.411987,-1.140620,-0.125739,3.102149,9.106447
6.352388,-3.860474,0.091553,-0.812556,-0.029339,3.126698,9.147162
6.367990,-4.158020,0.129700,-0.095393,-0.173639,3.240461,9.171711
6.383581,-4.310608,-0.190735,0.926946,-0.378413,3.388953,9.215421
6.399181,-4.211426,-0.564575,1.720403,-0.273032,3.422483,9.213624
6.414753,-4.020691,-0.686646,2.216313,-0.188009,3.420088,9.245358
6.430340,-4.341125,-1.007080,2.239202,-0.106578,3.357219,9.169915
6.445920,-5.088806,-0.778198,1.918767,-0.115560,3.266807,9.103454
6.461507,-6.355286,-0.656128,1.529668,-0.052690,3.220702,9.124410
6.477086,-6.431580,-0.534058,0.453923,0.020358,3.127896,9.293858
6.492672,-5.661011,-0.106812,-0.789668,-0.021555,3.156037,9.268111
6.508237,-5.508423,0.289917,-1.842524,-0.016765,3.193758,9.122614
6.523821,-6.492615,0.694275,-2.742793,-0.063468,3.256628,9.080701
6.539390,-8.155823,0.663757,-2.513911,-0.212558,3.250640,9.245358
6.554967,-8.232117,0.480652,-1.880671,-0.309556,3.246449,9.323196
6.570545,-7.781982,0.503540,-1.407649,-0.301174,3.144661,9.256136
6.586127,-7.400513,0.183105,-0.926997,-0.234113,3.220702,9.141773
6.601706,-8.659363,-0.205994,0.110601,-0.214953,2.926714,9.135786
6.617292,-9.857178,-0.595093,0.759099,-0.214354,2.777624,9.216020
6.632870,-9.605408,-0.831604,0.934575,-0.219743,2.712360,9.396843
6.648451,-8.270264,-0.640869,0.766729,-0.179626,2.660867,9.511805
6.664031,-6.507874,-0.724792,0.255559,-0.069456,2.720143,9.377085
6.679614,-6.111145,0.053406,-0.560786,-0.099992,2.775229,9.286673
6.695197,-6.095886,0.015259,-0.850703,-0.096998,2.902165,9.278889
6.710753,-6.736755,0.076294,-0.881221,-0.117955,2.814148,9.279488
6.726326,-7.347107,-0.213623,-1.041438,-0.146096,3.061434,9.381275
6.741893,-7.110596,-0.030518,-1.400020,-0.176034,2.905159,9.580661
6.757496,-4.943848,0.534058,-1.873042,-0.067659,2.838098,9.629160
6.773064,-3.242493,1.197815,-2.300288,-0.035327,2.737507,9.386065
6.788639,-4.325867,0.831604,-2.048518,-0.063468,2.722538,9.195063
6.804220,-5.432129,0.656128,-1.422908,-0.234712,2.493215,9.195662
6.819785,-5.363464,-0.251770,-0.392939,-0.366438,2.477648,9.183087
6.835362,-5.195618,-0.495911,0.064824,-0.365839,2.529739,9.401633
6.850918,-2.891541,0.007629,0.194524,-0.359253,2.614164,9.620179
6.866499,-1.281738,-0.183105,0.621770,-0.219743,2.873425,9.532162
6.882075,-3.684998,0.381470,-1.522090,-0.029938,2.862048,9.262722
6.897648,-2.983093,-1.159668,-0.522639,-0.074844,2.635120,9.310024
6.913221,-3.868103,-2.120972,-0.835444,-0.131127,2.459685,9.363313
6.928822,-4.692078,-2.578735,-2.147700,-0.207169,2.344724,9.345949
6.944422,-5.264282,-2.883911,-3.376033,-0.250280,2.256707,9.447139
6.960021,-5.279541,-0.823975,-2.918269,-0.211959,2.145339,9.586050
6.975620,-6.500244,0.022888,-2.292659,-0.019759,2.221381,9.508212
6.991222,-7.896423,-0.549316,-1.781489,0.026345,2.092648,9.454923
7.006814,-11.611938,-1.289368,-1.964595,-0.344284,2.105222,9.582458
7.022399,-8.583069,-0.785828,-2.231624,-0.435295,2.167493,9.519588
7.037997,-7.926941,2.708435,1.026128,-0.377216,2.099833,9.604012
7.053600,-10.520935,1.594543,1.453374,-0.279619,2.437531,9.273499
7.069193,-16.059875,1.289368,2.490972,-0.165256,2.205813,9.457916
7.084791,-20.721436,1.136780,3.826116,-0.097597,2.312391,9.892014
7.100397,-19.973755,1.235962,4.955266,-0.149689,2.039958,9.504620
7.116021,-16.639709,1.441956,6.046269,-0.193398,2.070494,9.760886
7.131641,-13.511658,0.419617,6.504033,-0.147892,2.381847,9.722566
7.147210,-13.603210,0.358582,5.947087,-0.134121,1.751358,9.630957
7.162795,-12.863159,0.358582,4.398320,-0.204774,2.129771,9.565093
7.178370,-16.578674,2.120972,3.528569,-0.064666,1.651965,9.702807
7.193954,-18.096924,-0.228882,2.124761,-0.249082,1.745371,9.404028
7.209535,-20.797729,-0.030518,1.468633,-0.361648,1.487307,9.662091
7.225111,-23.529053,-0.221252,0.797246,-0.432301,1.482517,9.479471
7.240679,-22.315979,-1.434326,-1.308467,-0.517324,1.666335,9.641135
7.256259,-22.628784,-0.129700,-2.895381,-0.219743,1.516047,10.069245
7.271845,-24.192810,0.450134,-4.055049,-0.265248,1.861529,9.637543
7.287419,-23.605347,0.587463,-4.566218,-0.160466,1.866319,9.631556
7.302994,-22.789001,2.151489,-3.208186,-0.442480,1.584904,9.820762
7.318570,-21.461487,1.136780,-2.880122,-0.371827,1.293311,9.844113
7.334145,-20.019531,0.671387,-2.468135,-0.191602,1.099913,9.883631
7.349725,-19.599915,0.122070,-1.987483,-0.232317,1.125659,9.775256
7.365301,-19.203186,0.091553,-2.285029,-0.341889,1.017883,9.784837
7.380877,-21.980286,0.984192,-1.415278,-0.119751,0.993334,9.570482
7.396465,-22.819519,0.312805,-0.812556,-0.259261,0.887355,9.437558
7.412076,-23.200989,-1.930237,0.209783,-0.257465,1.033451,9.431571
7.427679,-23.300171,-1.174927,1.270269,-0.210163,1.168769,9.704004
7.443285,-20.675659,-0.885010,2.841924,-0.294587,1.242416,9.812379
7.458883,-13.870239,-2.220154,3.368352,-0.228126,1.470542,10.067449
7.474483,-8.567810,-1.182556,3.307317,-0.096400,1.648971,10.024339
7.490077,-6.034851,0.350952,3.688787,-0.118553,1.376537,10.007573
7.505681,-7.499695,0.205994,3.162358,-0.124541,1.271755,9.677060
7.521280,-10.047913,-0.579834,2.078984,-0.267045,0.706531,9.790824
7.536878,-12.741089,-1.129150,0.972722,-0.147892,0.371827,9.514199
7.552470,-13.763428,-2.960205,-1.117732,-0.192799,0.596360,9.431571
7.568074,-16.494751,1.899719,0.431035,-0.341889,0.548459,9.178298
7.583681,-17.517090,1.396179,0.881169,-0.038919,0.931663,9.147761
7.599281,-17.608643,1.617432,1.445745,0.123344,1.659150,9.229791
7.614862,-14.831543,1.060486,1.567815,0.209564,2.035168,9.686042
7.630458,-6.942749,-2.189636,1.964543,-0.144899,1.296903,10.573996
7.646072,-8.193970,-1.136780,1.537297,-0.402962,1.382525,10.607526
7.661681,-6.088257,-0.152588,1.399968,-0.434097,1.138832,10.448855
7.677281,-3.288269,-0.968933,1.224492,-0.492177,0.731678,9.940513
7.692881,-3.875732,-0.427246,0.400518,-0.407752,0.220941,9.477675
7.708479,-6.347656,-0.740051,0.316594,-0.027543,-0.032932,9.277691
7.724102,-7.423401,-1.754761,0.682805,-0.092208,-0.165256,9.353733
7.739701,-7.682800,-1.426697,1.529668,-0.105980,-0.277223,9.517792
7.755293,-7.492065,-1.770020,1.995061,-0.281415,-0.055085,9.566291
7.770901,-7.659912,-1.296997,1.644109,-0.320334,0.410746,9.762683
7.786507,-8.781433,-1.396179,1.644109,-0.228724,0.555645,9.859681
7.802102,-10.139465,-1.228333,2.170537,-0.083826,0.681383,9.954284
7.817685,-11.970520,-1.464844,2.361272,-0.093406,0.580193,9.788429
7.833295,-13.504028,-1.548767,1.789067,-0.086221,0.595162,9.554914
7.848905,-15.327454,-0.526428,1.743291,-0.049098,-0.283211,9.695024
7.864513,-16.639709,-0.717163,1.010869,-0.076042,-0.200583,9.778849
7.880115,-16.326904,-0.953674,0.255559,-0.154479,-0.387394,10.042301
7.895717,-13.221741,-0.541687,-0.232722,-0.106578,-0.217947,10.217137
7.911318,-9.330750,0.297546,-0.331904,-0.022753,-0.144300,10.195582
7.926920,-6.202698,0.244141,-0.751521,0.037722,-0.188608,10.080023
7.942528,-4.287720,0.473022,-0.988032,-0.150287,-0.008981,9.897403
7.958137,-4.020691,0.923157,-1.567866,-0.272433,-0.195793,9.794416
7.973777,-4.486084,1.052856,-1.964595,-0.481998,-0.168250,9.602815
7.989363,-4.409790,0.785828,-1.880671,-0.256866,-0.442480,9.680653
8.004929,-4.806519,0.427246,-1.140620,-0.144300,-0.359253,9.720171
8.020525,-5.088806,-0.404358,-0.232722,-0.166454,-0.170046,9.725559
8.036103,-5.569458,-0.724792,0.431035,-0.270637,-0.300575,9.763281
8.051684,-5.760193,-0.762939,0.766729,-0.259261,-0.210762,9.847107
8.067275,-5.714417,-0.282288,0.759099,-0.184417,-0.211959,9.998592
8.082858,-4.638672,-0.679016,0.728582,-0.122745,-0.198787,9.981827
8.098452,-3.997803,-1.007080,0.637029,-0.083826,-0.214953,9.959074
8.114067,-3.639221,-0.511169,0.225042,-0.102387,-0.317340,9.857884
8.129676,-3.746033,-0.396729,-0.148799,-0.171244,-0.189805,9.730350
8.145274,-4.608154,0.183105,-0.354792,-0.063468,-0.268242,9.704004
8.160879,-5.905151,0.183105,-0.911738,-0.037123,-0.264051,9.713585
8.176487,-6.896973,0.427246,-0.980403,-0.073647,-0.295186,9.780046
8.192088,-7.186890,0.450134,-1.163508,-0.170046,-0.313149,9.854891
8.207672,-7.453918,0.724792,-1.163508,-0.202379,-0.325723,9.892612
8.223254,-7.164001,0.679016,-0.965144,-0.252675,-0.428110,9.809385
8.238848,-7.751465,0.335693,-0.476863,-0.268242,-0.390987,9.865069
8.254441,-8.125305,-0.129700,-0.125911,-0.238903,-0.466430,9.883032
8.270024,-8.331299,-0.473022,-0.133540,-0.190404,-0.512534,9.770466
8.285628,-8.789062,-0.694275,0.293706,-0.161664,-0.437091,9.814775
8.301216,-9.086609,-0.755310,0.499700,-0.150886,-0.529898,9.913568
8.316809,-9.361267,-0.183105,0.186895,-0.170046,-0.495170,9.812379
8.332403,-9.979248,0.160217,-0.263240,-0.134720,-0.508343,9.702209
8.347990,-13.519287,0.030518,-0.484492,-0.134121,-0.532892,9.712387
8.363593,-12.817383,0.297546,-0.476863,-0.110770,-0.577798,9.630358
8.379188,-14.259338,0.267029,-0.858333,-0.237107,-0.552052,9.859681
8.394841,-15.380859,0.358582,-0.667598,-0.176633,-0.632884,10.036313
8.410431,-15.403748,0.373840,-0.850703,-0.275427,-0.683778,9.887822
8.426070,-16.693115,-0.663757,0.057195,-0.335901,-0.627495,9.699215
8.441666,-19.371033,-1.502991,1.087163,-0.246687,-1.250200,9.953686
8.457270,-19.088745,-2.044678,1.529668,-0.403561,-0.984952,9.560902
8.472866,-19.180298,-2.830505,2.262090,-0.244292,-1.529819,9.900995
8.488457,-18.173218,-3.311157,3.887151,-0.465233,-1.804647,9.978234
8.504069,-14.770508,-5.836487,4.283879,-0.535287,-1.484912,9.628561
8.519640,-9.780884,-4.501343,3.955815,-0.437091,-1.733994,9.950691
8.535236,-6.233215,-3.517151,3.795598,-0.284409,-1.794468,9.735140
8.550844,-5.271912,-3.623962,3.513310,0.200583,-1.682501,9.338764
8.566447,-5.645752,-4.302979,3.452275,0.299377,-1.742975,9.571680
8.582048,-6.401062,-4.333496,4.276250,0.125739,-1.680106,9.645327
8.597649,-4.783630,-4.158020,4.474614,0.301174,-1.777703,10.219532
8.613238,0.320435,-3.150940,3.276799,0.211360,-1.404080,10.169836
8.628841,4.409790,-1.091003,1.140569,0.164658,-1.225651,10.183607
8.644423,7.614136,2.746582,-0.309016,0.179028,-1.246608,9.909976
8.660009,9.552002,4.371643,-4.314448,0.173040,-1.226250,9.781244
8.675616,9.056091,4.936218,-6.176021,0.059277,-1.117875,9.682449
8.691179,6.729126,5.355835,-5.374934,-0.059277,-1.143622,9.667480
8.706753,5.683899,6.431580,-6.862666,-0.310155,-1.223256,9.451929
8.722310,3.303528,7.362366,-7.770564,-0.338895,-1.237028,9.321999
8.737865,0.686646,6.034851,-6.999995,-0.335303,-1.390908,9.575273
8.753420,1.693726,3.890991,-5.504634,-0.387394,-1.360371,9.995598
8.768982,3.570557,2.555847,-3.261592,-0.467029,-1.204695,10.222527
8.784558,7.537842,1.022339,-1.148250,-0.566422,-1.184337,10.304556
8.800141,12.977600,-1.190186,1.651738,-0.537083,-1.085543,10.447060
8.815727,12.619019,-3.585815,2.979253,-0.161664,-0.885558,10.058468
8.831305,12.634277,-2.441406,2.613042,-0.156874,-0.739462,9.569284
8.846880,9.201050,-2.639771,2.864812,0.042512,-0.869392,9.681850
8.862467,5.187988,-2.426147,2.384160,0.091011,-0.816103,9.745917
8.878051,2.479553,-1.518250,1.430486,-0.029339,-0.712518,9.662091
8.893649,0.404358,-0.366211,-0.057246,-0.108973,-0.869991,9.876446
8.909235,0.221252,0.770569,-1.148250,-0.115560,-0.952020,9.900995
8.924814,1.342773,0.999451,-1.239802,-0.134121,-1.081950,9.935722
8.940407,2.731323,1.083374,-1.255061,-0.143102,-1.204695,9.899797
8.956000,4.791260,1.022339,-1.506831,-0.165256,-1.135838,9.993203
8.971582,4.829407,0.045776,-1.621272,-0.127535,-1.271157,10.350659
8.987174,4.776001,2.098083,-1.087214,-0.188009,-1.056204,9.192069
9.002771,5.592346,0.015259,-1.056697,-0.419128,-0.949026,9.562698
9.018362,4.585266,0.556946,-0.553157,-0.295785,-0.935854,9.829743
9.033972,4.981995,-0.572205,-0.217463,-0.308958,-0.827479,9.751904
9.049576,4.486084,-0.572205,0.652288,-0.164658,-0.956212,9.990210
9.065173,5.416870,-1.388550,1.262639,-0.240101,-1.031655,9.844712
9.080756,5.905151,-0.854492,1.361821,-0.243693,-0.969983,9.829144
9.096347,6.492615,-1.167297,1.430486,-0.148491,-1.116678,9.905186
9.111947,6.965637,-0.747681,0.461553,-0.177231,-0.636476,9.811780
9.127548,6.660461,0.541687,-1.102473,-0.175435,-0.754431,9.702209
9.143142,6.057739,1.541138,-2.407100,-0.063468,-0.495769,9.806392
9.158762,5.523682,2.754211,-3.757503,-0.035327,-0.714315,9.872254
9.174352,5.607605,3.135681,-3.856685,-0.086819,-0.880170,9.946500
9.189953,7.324219,2.113342,-3.078486,-0.310155,-0.915496,9.845909
9.205547,8.468628,1.144409,-1.743342,-0.369432,-0.729283,9.833336
9.221142,6.797791,0.724792,-0.804927,-0.401166,-0.516725,9.608803
9.236732,3.944397,0.587463,0.095342,-0.386796,-0.708327,9.663888
9.252313,2.861023,0.923157,1.163457,-0.346679,-0.708327,9.783040
9.267908,3.807068,0.411987,1.384709,-0.304766,-0.750839,9.883032
9.283509,4.737854,-0.183105,1.766179,-0.390388,-0.821492,9.847107
9.299102,4.837036,0.106812,2.445195,-0.314945,-0.607137,9.796213
9.314672,3.768921,-0.457764,2.979253,-0.191602,-0.528701,9.751307
9.330274,3.204346,-0.892639,3.047917,-0.138911,-0.722697,9.817169
9.345873,3.074646,-0.373840,3.063176,-0.198787,-0.598755,9.869860
9.361472,2.624512,0.396729,3.398870,-0.255668,-0.565225,9.853693
9.377077,2.609253,1.022339,3.330205,-0.149090,-0.438887,9.825552
9.392681,2.937317,-0.305176,2.620671,-0.245490,-0.365839,9.764479
9.408280,1.785278,-0.747681,2.490972,-0.286804,-0.432301,9.793818
9.423875,0.442505,-0.709534,1.834844,-0.262853,-0.769400,10.022542
9.439470,-0.511169,-0.534058,1.964543,-0.267045,-0.995729,10.093195
9.455071,-0.297546,-0.518799,1.834844,-0.304766,-1.113085,9.985419
9.470671,-1.617432,-0.930786,0.278447,-0.325124,-0.983754,9.814775
9.486251,-0.350952,-2.113342,-0.492122,-0.246687,-1.023871,9.601618
9.501844,-3.044128,-3.059387,-2.559688,-0.399968,-0.798739,9.388461
9.517420,-10.391235,-0.747681,-6.420161,-0.131127,-0.859213,9.595031
9.533015,-16.738892,-0.198364,-9.433772,-0.328118,-1.042432,9.644728
9.548594,-20.599365,1.640320,-10.334041,-0.408950,-1.052611,9.681850
9.564196,-20.210266,3.059387,-9.593989,-0.203577,-1.047222,9.823156
9.579790,-16.044617,2.975464,-8.213069,-0.146096,-0.799937,9.829144
9.595390,-11.779785,1.213074,-5.924251,-0.197589,-0.730481,10.007573
9.610976,-10.498047,0.106812,-3.772761,-0.128134,-0.620909,10.015956
9.626558,-10.528564,-1.113892,-1.499202,-0.405956,-1.040037,10.053079
9.642190,-12.191772,0.473022,1.049016,-0.144899,-1.224454,9.987216
9.657777,-11.474609,-0.572205,1.277898,-0.153281,-1.417852,9.772263
9.673353,-11.535645,-0.083923,1.720403,-0.150886,-1.445394,9.501625
9.688932,-14.923096,0.709534,1.712773,-0.067659,-1.676514,9.660295
9.704513,-15.846252,1.052856,1.651738,-0.034728,-1.594484,9.586050
9.720090,-17.959595,-0.106812,1.270269,-0.299976,-1.549578,9.456120
9.735673,-19.012451,0.358582,2.262090,-0.336500,-1.962718,9.669277
9.751255,-20.065308,0.236511,2.925847,-0.265847,-1.778901,9.814775
9.766842,-20.645142,-1.068115,3.078435,-0.168250,-1.579515,9.831539
9.782428,-21.545410,-1.762390,3.108953,-0.334704,-1.505869,9.748312
9.798009,-23.788452,-2.128601,3.154729,-0.574805,-1.858535,9.641135
9.813595,-25.718689,-1.159668,3.627751,-0.331710,-1.611848,9.706998
9.829195,-23.590088,-1.419067,2.941106,-0.223336,-1.322051,9.442947
9.844778,-22.651672,-0.534058,2.147649,-0.295785,-1.338217,9.326190
9.860356,-21.064758,-0.679016,1.216863,-0.128134,-1.401685,9.833336
9.875941,-19.302368,-0.740051,0.720952,-0.201182,-1.040636,9.953686
9.891529,-16.532898,-1.091003,0.186895,-0.289199,-1.338217,9.934525
9.907121,-13.389587,-0.503540,-0.080134,-0.180225,-1.290915,10.140497
9.922705,-8.872986,-0.259399,-0.682856,-0.243693,-1.245410,10.050684
9.938290,-5.630493,0.244141,-0.057246,-0.450264,-1.485511,10.090201
9.953865,-5.538940,0.099182,0.186895,-0.215552,-1.488505,9.726757
9.969445,-6.950378,0.236511,0.408147,-0.443677,-1.699266,9.642333
9.985042,-7.316589,0.381470,-0.186946,-0.192200,-1.983675,9.772861
10.000626,-7.026672,-0.747681,-1.155879,-0.437091,-2.685416,9.756695
10.016214,-5.508423,0.419617,-1.644160,-0.255070,-2.520758,9.739331
10.031807,-7.049561,0.122070,-2.407100,-0.298180,-2.841691,9.664487
10.047385,-14.724731,0.007629,-3.994014,-0.288600,-2.937491,9.153749
10.062985,-22.720337,1.068115,-6.450679,-0.357457,-2.558480,9.047171
10.078594,-29.464722,-1.823425,-8.823421,-0.341290,-3.003355,8.954962
10.094178,-33.996582,1.014709,-7.022883,-0.577200,-3.147655,9.226198
10.109760,-33.638000,1.708984,-5.550410,-0.441881,-2.924918,8.783718
10.125362,-33.775330,2.296448,-5.023982,-0.312550,-2.783013,9.048966
10.140949,-36.277771,2.189636,-4.406001,-0.290396,-3.418292,9.744122
10.156537,-41.297913,-0.709534,-6.572749,0.111967,-3.326682,9.501026
10.172123,-45.478821,-3.219604,-5.710628,-0.255070,-3.688929,9.572877
10.187710,-48.011780,-2.471924,-3.871943,0.067659,-3.239264,9.430972
10.203290,-47.401428,-1.243591,-1.056697,-0.264650,-3.048261,9.296851
10.218879,-41.152954,1.838684,2.452825,0.193997,-2.271676,9.341758
10.234493,-33.592224,1.548767,3.131841,0.089813,-1.754352,9.132792
10.250073,-28.251648,0.465393,3.902410,0.195194,-1.639990,9.302240
10.265662,-20.668030,-1.083374,5.809758,-0.080233,-1.353186,9.754300
10.281251,-8.674622,-2.563477,7.503484,0.041913,-2.110012,10.508132
10.296839,-10.581970,-4.707336,4.863713,-0.367635,-2.294429,10.475800
10.312416,-6.736755,-3.158569,3.658269,-0.476609,-2.848277,10.653629
10.327990,-7.484436,-1.441956,1.331304,-0.394579,-3.164420,10.110559
10.343582,-6.988525,-0.465393,-0.331904,-0.601749,-3.584147,9.595630
10.359178,-5.699158,1.075745,-2.300288,-0.590372,-3.857778,9.107046
10.374762,-5.462646,2.571106,-3.322627,-0.641865,-4.181704,8.565771
10.390365,-6.027222,2.479553,-3.749873,-0.486189,-4.217629,8.348423
10.405948,-9.017944,2.082825,-3.391292,-0.332908,-4.070934,8.272382
10.421545,-13.069153,1.213074,-2.384212,-0.141306,-4.044589,8.454403
10.437128,-17.356873,0.045776,-1.262690,0.013771,-4.005072,8.750787
10.452716,-19.966125,-1.388550,0.370000,0.014370,-4.009263,9.045374
10.468310,-21.301270,-2.975464,4.245732,-0.111368,-3.918252,9.266315
10.483904,-21.484375,-4.417419,3.246282,-0.155676,-3.859574,9.374090
10.499486,-22.338867,-4.608154,3.681157,-0.262853,-3.913462,9.321999
10.515072,-23.780823,-3.746033,2.506230,-0.358055,-3.889512,9.440553
10.530670,-24.673462,-3.158569,1.834844,-0.238304,-3.979325,9.498631
10.546248,-23.582458,-3.379822,1.743291,-0.235311,-4.333788,9.562099
10.561847,-22.056580,-3.135681,1.956914,-0.186812,-4.241580,9.421991
10.577454,-20.347595,-2.983093,1.483892,-0.213755,-4.282295,9.097466
10.593037,-19.889832,-2.349854,0.690435,-0.062869,-4.587660,8.952567
10.608616,-20.782471,-1.747131,-0.431086,-0.155676,-4.578679,8.666961
10.624211,-21.575928,0.770569,-0.415828,0.007185,-4.636758,8.614869
10.639802,-23.071289,1.083374,-1.033809,0.044308,-4.851112,8.218493
10.655387,-26.618958,0.534058,-0.881221,0.067061,-4.920568,8.468773
10.670994,-26.718140,-0.305176,-0.614192,-0.102986,-4.995412,8.584931
10.686583,-26.962280,0.595093,-0.789668,-0.080832,-4.978048,8.657980
10.702175,-25.848389,0.656128,-0.988032,-0.155676,-5.258265,8.765157
10.717756,-24.780273,1.464844,-1.422908,-0.214354,-5.106781,8.840600
10.733342,-23.803711,2.220154,-1.659419,-0.299377,-5.209766,8.605289
10.748920,-22.644043,2.685547,-2.529170,-0.167651,-5.312752,8.542420
10.764513,-22.567749,4.821777,-2.979304,-0.005988,-5.072651,8.501106
10.780091,-24.314880,5.607605,-4.192378,0.047900,-5.543871,8.396923
10.795668,-23.185730,5.760193,-4.123713,-0.081431,-5.485193,8.007133
10.811267,-23.040771,5.012512,-5.443599,-0.310754,-6.057004,8.137063
10.826845,-18.173218,7.942200,-4.108455,-0.247885,-5.931266,8.174785
10.842439,-16.609192,8.865356,-5.954768,-0.101788,-5.923482,8.032880
10.858034,-14.907837,8.316040,-7.343318,-0.295785,-5.707930,8.106526
10.873614,-15.846252,10.177612,-6.343867,-0.188009,-5.661227,7.825710
10.889211,-18.043518,9.963989,-6.542232,-0.268242,-5.883366,8.301122
10.904820,-18.745422,5.958557,-5.702998,-0.583187,-5.721702,8.458594
10.920412,-19.409180,5.546570,-3.208186,-0.271835,-5.634882,8.346627
10.936014,-16.853333,2.830505,-2.170588,-0.298180,-6.080955,8.343634
10.951612,-12.268066,0.869751,-1.384761,-0.205972,-6.119275,8.184963
10.967211,-9.269714,-0.198364,-0.316646,-0.306563,-6.076165,8.008929
10.982790,-7.575989,-1.434326,0.453923,-0.520917,-6.095923,7.805353
10.998369,-9.376526,-2.319336,0.202153,-0.428708,-6.058801,7.564054
11.013955,-11.253357,-2.906799,1.430486,-0.235909,-6.106102,7.488013
11.029544,-13.999939,-3.181458,1.399968,-0.155676,-6.187533,7.618541
11.045126,-14.152527,-3.936768,1.232122,-0.414338,-6.269562,7.819723
11.060760,-12.123108,-3.547668,1.384709,-0.448467,-6.368956,7.815532
11.076391,-9.399414,-2.113342,0.835393,-0.330513,-6.395301,7.835290
11.091987,-4.264832,-1.121521,0.339482,-0.432301,-6.324648,7.687398
11.107586,-1.266479,-0.083923,-0.415828,-0.322130,-6.583310,7.838883
11.123176,2.685547,0.038147,0.049565,0.122146,-6.403684,7.756255
11.138764,4.783630,0.862122,-0.957515,-0.177231,-6.272556,7.382632
11.154353,4.440308,0.518799,-0.995662,0.209564,-6.512058,7.553876
11.169931,6.423950,-1.945496,0.484441,-0.420326,-6.442004,7.596986
11.185522,7.545471,-0.801086,1.941655,-0.209564,-6.343209,7.672429
11.201095,8.956909,-0.442505,0.904058,-0.071851,-6.215075,7.576628
11.216658,9.094238,0.785828,0.034307,0.208367,-6.031857,7.731107
11.232230,8.438110,1.266479,-0.812556,0.105980,-6.038443,7.896364
11.247787,6.820679,4.936218,0.431035,0.337099,-6.161188,8.213105
11.263363,7.881165,4.409790,-6.694819,0.339494,-6.333629,8.197537
11.278920,5.241394,3.692627,-1.285579,-0.675395,-5.839656,8.228672
11.294474,7.774353,4.890442,-2.407100,-0.528701,-5.840854,8.438236
11.310033,8.300781,2.914429,-1.132991,-0.659828,-5.844446,8.313097
11.325611,7.041931,3.639221,-1.117732,-0.269440,-5.613926,7.990368
11.341188,4.737854,2.395630,-1.552607,-0.437091,-5.733677,8.134668
11.356753,2.548218,1.502991,-0.019099,-0.282014,-5.839057,8.143050
11.372312,1.274109,0.991821,-0.598933,-0.331111,-5.837860,8.009528
11.387894,0.701904,0.099182,-0.843074,-0.283810,-5.833669,7.783798
11.403471,-2.365112,0.366211,-0.637080,-0.446671,-5.851033,8.307110
11.419035,-2.174377,-0.282288,0.049565,-0.484393,-6.108497,7.816729
11.434590,-1.068115,0.099182,0.522588,-0.568817,-5.983956,8.007133
11.450146,-0.938416,0.694275,-0.850703,-0.236508,-5.904921,8.414287
11.465728,1.258850,-0.640869,0.041936,-0.143701,-5.924680,7.860438
11.481290,5.584717,-1.129150,0.667546,-0.426313,-5.672005,8.305313
11.496870,-0.663757,0.480652,1.750920,0.557441,-5.775589,7.792779
11.512473,-1.235962,-2.090454,-0.331904,-0.383203,-6.211483,8.071200
11.528075,-0.610352,-3.677368,2.651189,-0.091011,-6.258186,7.918518
11.543654,3.913879,-3.990173,2.941106,0.054487,-6.248007,8.034077
11.559253,3.669739,-5.744934,3.658269,-0.079634,-5.986351,7.885586
11.574836,3.189087,-6.019592,3.864263,-0.001796,-5.749843,7.796371
11.590413,-0.717163,-3.715515,4.619573,-0.083826,-5.724097,7.784396
11.606001,-3.684998,-2.990723,4.932378,0.034129,-6.169570,7.838883
11.621609,-6.721497,-1.075745,4.154180,-0.092208,-6.091134,7.874209
11.637187,-7.476807,0.823975,3.643010,-0.140707,-6.112090,7.986177
11.652762,-5.554199,1.853943,1.407598,-0.223934,-5.961802,7.919715
11.668369,-3.890991,3.288269,-0.827815,-0.384401,-6.004913,8.162809
11.683966,-3.028870,4.142761,-2.239253,-0.372426,-5.957611,8.158618
11.699542,1.350403,5.645752,-2.613093,-0.526904,-6.218070,8.375367
11.715124,1.243591,6.378174,-3.574397,-0.859812,-5.891748,8.058027
11.730727,1.121521,8.758545,-4.032161,-0.787961,-5.825286,8.021503
11.746305,1.358032,9.704590,-5.313899,-0.696951,-5.973179,7.983782
11.761880,3.890991,9.986877,-5.565669,-0.816702,-6.240822,8.203525
11.777454,3.570557,8.430481,-5.657222,-0.713117,-6.025270,7.829303
11.793047,3.875732,7.843018,-5.146052,-0.826282,-6.070177,7.657460
11.808650,2.677917,5.920410,-3.459956,-0.532293,-6.064788,7.585011
11.824229,0.198364,4.981995,-2.613093,-0.516725,-6.135441,7.410174
11.839820,1.586914,1.449585,-4.406001,-0.456850,-6.093528,7.365867
11.855397,3.616333,3.288269,-1.819636,-0.472418,-6.403684,8.035873
11.870982,3.463745,2.677917,-0.621821,-0.074844,-5.829477,8.105329
11.886557,3.463745,-0.244141,-1.346614,-0.242496,-5.880970,8.315492
11.902138,3.967285,1.029968,-0.263240,-0.538879,-5.428911,7.913129
11.917726,-2.693176,-1.457214,0.591252,-0.238304,-5.449268,8.498711
11.933311,-2.319336,-2.082825,0.606511,-0.665815,-5.807922,8.707676
11.948880,-4.463196,-1.953125,1.064275,-0.563428,-5.664820,8.582537
11.964459,-1.083374,-1.693726,0.476812,-0.534089,-6.139034,8.375367
11.980030,1.098633,-0.511169,0.232671,-0.364043,-6.005511,8.207716
11.995613,2.479553,0.968933,-0.354792,-0.423320,-6.005511,8.017911
12.011185,2.273560,-0.320435,0.301335,-0.218546,-5.830076,7.971807
12.026786,-0.938416,-1.358032,1.041387,-0.233514,-5.814508,7.811939
12.042376,-3.349304,-1.663208,1.323674,-0.219144,-5.776188,7.837087
12.057956,-6.546021,-2.090454,1.140569,-0.396376,-6.019283,7.686201
12.073545,-5.889893,-1.899719,0.835393,-0.625699,-6.094127,7.825710
12.089129,-5.577087,-0.755310,0.553105,-0.592767,-6.036647,7.836488
12.104728,-2.365112,3.959656,-3.238704,-1.579515,-6.292315,8.106526
12.120313,-4.669189,4.463196,-4.001643,-0.630489,-5.644462,8.356806
12.135888,-2.624512,1.541138,-0.713374,-0.589175,-6.060597,8.318485
12.151478,-5.508423,-4.577637,2.559636,0.343087,-5.545668,8.435842
12.167058,-7.308960,-11.032104,4.703496,0.023351,-5.792355,8.543617
12.182646,-6.866455,-12.680054,4.489873,-0.865800,-5.880970,8.035873
12.198216,-11.390686,-11.062622,4.665349,-0.390388,-6.423442,8.157421
12.213778,-16.014099,-15.937805,1.140569,0.431104,-6.415060,7.917919
12.229363,-22.926331,-21.591187,-0.682856,0.137714,-6.440207,7.672429
12.244945,-28.594971,-22.521973,-0.019099,-0.570015,-6.444399,7.328145
12.260528,-36.163330,-19.287109,4.032109,-0.358654,-6.722221,7.222764
12.276101,-46.783447,-15.884399,6.481145,0.002994,-6.779103,6.964701
12.291675,-52.719116,-15.502930,6.214116,0.052690,-6.679111,7.253900
12.307267,-54.771423,-16.906738,6.671880,0.065264,-7.206015,7.401193
12.322845,-52.612305,-16.586304,5.863164,0.180225,-6.804849,7.182648
12.338417,-47.248840,-14.915466,5.771611,0.117356,-7.171287,6.811419
12.353989,-39.634705,-12.130737,2.284978,0.057480,-6.451584,7.268868
12.369559,-34.370422,-8.743286,1.132939,0.118553,-7.256909,7.476636
12.385161,-32.737732,-5.302429,0.789617,0.189805,-7.582033,6.903029
12.400749,-27.160645,-0.663757,2.902959,0.390987,-9.377100,6.408458
12.416342,-26.451111,4.158020,-3.414180,0.649050,-7.741900,6.609041
12.431923,-20.561218,6.111145,-3.345515,-0.091011,-7.622748,6.379118
12.447538,-22.109985,9.140015,-9.342219,0.371228,-7.601792,6.428216
12.463118,-28.388977,9.033203,-11.096980,-0.037123,-7.694599,6.488092
12.478678,-30.853271,10.810852,-13.248469,-0.119152,-7.738907,6.486296
12.494246,-31.692505,11.032104,-14.049556,-0.284409,-7.765252,6.188715
12.509820,-32.867432,12.603760,-14.858272,-0.022753,-7.805368,5.971965
12.525401,-35.667419,12.962341,-16.201044,0.055085,-7.986193,5.977953
12.541005,-38.002014,12.641907,-19.138361,-0.147294,-8.029303,5.967774
12.556600,-40.199280,12.413025,-16.422297,-0.268242,-8.017926,5.925262
12.572205,-40.321350,13.381958,-14.514949,-0.150886,-7.893984,5.811499
12.587807,-41.442871,14.068604,-13.095881,0.015568,-7.786807,5.768988
12.603408,-41.687012,14.030457,-12.485530,0.098196,-8.464598,5.712106
12.619007,-40.550232,15.594482,-10.982539,-0.202379,-7.800579,5.651631
12.634619,-43.289185,14.869690,-10.036494,-0.052690,-7.496411,5.697137
12.650226,-43.777466,13.343811,-9.677913,-0.064666,-7.631131,5.941429
12.665838,-42.442322,11.306763,-8.182551,-0.342488,-7.720944,6.303077
12.681422,-38.162231,11.383057,-7.045772,-0.132325,-7.594607,6.389896
12.697021,-33.264160,8.819580,-6.237056,-0.166454,-7.726932,6.517431
12.712622,-29.891968,7.781982,-5.710628,-0.258662,-7.905960,6.825790
12.728222,-26.672363,7.026672,-2.567317,-0.384401,-8.436457,6.746754
12.743824,-20.683289,6.896973,-0.240352,-0.279020,-8.689730,6.613831
12.759414,-16.914368,3.112793,-0.888850,-0.161065,-8.610694,6.230628
12.775002,-17.837524,0.473022,-1.842524,-0.144899,-8.321495,5.758210
12.790602,-24.818420,-0.427246,-0.324275,-0.252675,-8.552016,5.199572
12.806194,-32.432556,-0.801086,0.095342,-0.164059,-8.532257,4.707994
12.821791,-40.306091,-1.815796,-1.171138,-0.158670,-8.813672,4.521182
12.837391,-45.227051,-1.708984,-1.537349,-0.281415,-8.932225,4.146960
12.852996,-50.971985,-2.792358,-0.766780,-0.100591,-8.852591,4.330778
12.868594,-55.458069,-4.531860,0.827764,0.089214,-9.139395,4.425382
12.884211,-56.106567,-7.553101,1.491521,0.104782,-9.057964,4.472683
12.899820,-51.925659,-10.032654,0.934575,0.028141,-9.455537,4.612792
12.915409,-48.400879,-11.154175,1.819585,0.114961,-9.514215,4.821757
12.931008,-42.457581,-10.757446,1.544927,0.082029,-9.375304,4.099659
12.946620,-40.130615,-10.200500,1.018499,-0.000599,-9.449550,4.088283
12.962222,-38.604736,-8.399963,0.850652,0.055684,-9.225017,3.609279
12.977835,-36.987305,-6.553650,1.605962,0.270038,-9.426198,3.066807
12.993416,-37.796021,-3.921509,1.552556,0.213157,-9.641750,2.987172
13.009002,-39.085388,-2.357483,0.980352,0.208367,-9.433383,2.530322
13.024612,-38.803101,-1.983643,0.820134,0.201780,-9.718989,2.379436
13.040210,-39.474487,-1.632690,-0.087764,0.234113,-9.789642,2.328542
13.055817,-39.840698,-0.877380,0.316594,0.255070,-9.512419,2.406979
13.071424,-37.033081,0.579834,0.339482,0.148491,-9.733958,2.251302
13.087022,-35.339355,3.845215,0.469182,0.007185,-9.748328,2.093231
13.102608,-33.172607,6.744385,0.835393,0.274828,-9.757310,2.300999
13.118188,-28.800964,9.269714,0.545476,0.328118,-9.771081,2.126761
13.133791,-25.650024,11.131287,-0.446345,0.299377,-9.972262,2.066886
13.149398,-23.445129,12.985229,-0.461604,0.213157,-9.845925,1.984857
13.165001,-19.798279,14.457703,-0.392939,0.205373,-9.823771,1.857322
13.180585,-16.426086,15.541077,0.453923,0.004191,-10.003398,1.637579
13.196196,-14.091492,15.388489,1.003240,0.004191,-9.913585,1.629795
13.211800,-13.206482,13.694763,0.720952,0.301174,-9.899814,1.642968
13.227405,-13.458252,10.696411,0.530217,0.415536,-9.862092,1.582493
13.243008,-14.381409,7.690430,0.629399,0.437091,-9.815389,1.638178
13.258622,-14.434814,4.264832,1.171086,0.285007,-9.848320,1.609437
13.274214,-14.877319,1.586914,1.064275,0.085023,-9.953102,1.639375
13.289826,-14.831543,0.091553,-0.049617,-0.100591,-10.050100,1.581895
13.305432,-12.802124,0.770569,-1.255061,-0.248483,-9.953701,1.503458
13.321035,-8.659363,1.892090,-1.651790,-0.311951,-9.893826,1.539982
13.336633,-6.217957,2.853394,-1.865413,-0.556842,-9.924961,1.514834
13.352233,-5.371094,4.493713,-3.269221,-0.312550,-10.354867,1.326226
13.367848,-6.561279,5.653381,-4.383113,-0.229922,-9.897418,1.049003
13.383445,-6.484985,6.660461,-5.321528,-0.001796,-9.841734,0.989726
13.399027,-6.141663,7.202148,-5.275752,0.087418,-10.045910,0.892728
13.414586,-7.247925,7.919312,-4.451777,0.241897,-10.001601,1.034633
13.430167,-8.506775,6.774902,-4.955317,0.208367,-9.920171,1.204080
13.445754,-8.796692,6.202698,-5.138423,-0.077239,-9.919572,1.368139
13.461335,-7.041931,6.797791,-5.130794,-0.074844,-10.094409,1.505254
13.476902,-5.744934,8.430481,-4.566218,-0.035925,-10.145902,1.477711
13.492482,-4.493713,9.895325,-4.100825,0.243094,-9.951905,1.586086
13.508068,-1.541138,9.353638,-5.466487,0.311951,-9.935140,1.608240
13.523653,0.244141,8.140564,-6.580379,0.307161,-10.006392,1.626801
13.539225,0.617981,8.010864,-6.931331,0.483794,-9.710008,1.525612
13.554805,3.143311,6.065369,-5.565669,0.034129,-10.014774,1.476514
13.570377,5.317688,3.005981,-5.489375,0.246088,-10.294991,1.531599
13.585961,7.003784,-2.731323,-4.993464,0.208965,-10.249486,1.168155
13.601548,6.141663,-5.455017,-5.031611,0.296982,-9.823173,1.400472
13.617136,6.004333,-7.316589,-4.528071,0.219144,-9.574091,1.435200
13.632730,5.523682,-6.675720,-4.520442,0.062869,-10.113568,1.511840
13.648296,2.548218,-5.134583,-3.849055,-0.065863,-10.231524,1.601055
13.663878,1.976013,-2.365112,-2.643611,0.116158,-10.474618,1.556747
13.679470,-1.945496,0.083923,-0.652339,0.299377,-10.290201,1.284912
13.695075,-7.270813,1.937866,0.736211,0.303569,-10.040521,1.265752
13.710681,-18.379211,7.774353,-0.324275,0.302970,-9.884246,1.632789
13.726285,-28.404236,11.840820,0.247930,0.639470,-10.177635,1.219049
13.741890,-36.193848,15.121460,0.301335,0.861010,-10.608739,0.661009
13.757491,-41.694641,16.021729,-0.545527,0.566422,-10.163265,0.453840
13.773084,-44.006348,16.525269,-1.529719,0.460443,-10.251881,0.111951
13.788685,-47.912598,16.746521,0.896428,0.464035,-10.062675,-0.107193
13.804296,-51.055908,14.770508,4.558537,0.530497,-9.750125,-0.182636
13.819902,-54.031372,11.749268,6.938909,0.483195,-9.909393,-0.449681
13.835512,-55.976868,7.652283,9.311650,0.391586,-10.001003,-0.144915
13.851114,-59.906006,4.287720,13.332341,1.422642,-9.956695,-0.816718
13.866717,-54.580688,-2.059937,13.629888,0.270637,-10.421927,-0.398188
13.882300,-53.916931,-1.129150,7.060979,-0.310754,-9.884246,0.020941
13.897904,-47.561646,1.609802,6.862615,0.313149,-9.465117,0.276010
13.913511,-40.641785,8.232117,6.809209,0.011975,-10.371034,0.220925
13.929108,-40.740967,12.161255,5.985234,0.098196,-10.138717,0.396360
13.944710,-34.606934,15.937805,3.330205,0.097597,-9.595646,0.195178
13.960310,-25.115967,17.120361,5.031560,-0.067659,-9.666898,-0.245505
13.975911,-19.065857,16.983032,4.856084,0.089214,-10.160871,-0.298196
13.991511,-17.814636,14.312744,3.833745,-0.217947,-10.410551,-0.217963
14.007089,-16.815186,11.825562,3.940557,-0.477806,-10.299782,-0.373040
14.022697,-11.337280,9.849548,5.687688,-0.194595,-9.751921,-0.529315
14.038303,-5.783081,6.797791,5.466435,-0.124541,-9.803413,-0.946049
14.053914,-6.736755,3.196716,5.031560,0.031135,-9.856104,-1.421460
14.069499,-13.610840,2.510071,3.185246,-0.521515,-9.930349,-1.686110
14.085088,-24.665833,3.211975,3.856633,-0.462239,-10.354268,-1.381343
14.100681,-27.717590,3.486633,0.667546,-0.496967,-10.289004,-0.963412
14.116271,-26.840210,6.004333,-0.118281,-0.626298,-9.848919,-0.858630
14.131855,-21.209717,7.774353,0.713323,-0.782573,-9.116642,-1.524446
14.147454,-18.058777,8.666992,3.719304,-0.646057,-10.212962,-1.896871
14.163074,-32.234192,9.910583,6.404851,-1.147214,-10.320139,-1.578933
14.178678,-44.403076,12.466431,6.816838,-0.903521,-10.072254,-1.908846
14.194282,-50.521851,13.511658,5.290959,-0.516127,-9.937534,-1.811848
14.209881,-50.750732,10.986328,2.475713,-0.640069,-9.503437,-1.762151
14.225477,-54.183960,10.185242,0.202153,-0.925076,-9.087902,-1.477743
14.241077,-55.778503,12.474060,1.613591,-0.971180,-8.978330,-1.735208
14.256676,-59.265137,17.211914,9.220098,-1.386118,-10.159673,-1.640005
14.272284,-59.730530,23.872375,21.610235,-1.450184,-11.393706,-1.219680
14.287870,-50.811768,33.309937,31.452154,-1.675316,-10.210567,-0.628110
14.303484,-39.619446,37.956238,32.833073,-0.967588,-8.909472,-0.362263
14.319080,-23.063660,39.344788,27.126287,-0.913101,-8.729247,-0.613740
14.334677,-14.526367,37.841797,23.311590,-0.730481,-9.363329,-1.544205
14.350280,-10.635376,36.483765,28.049444,-0.686173,-10.609937,-1.929803
14.365888,-13.603210,37.635803,31.276678,0.648452,-13.000765,-2.632741
14.381466,-18.470764,32.066345,19.153570,1.304088,-11.145823,-2.782430
14.397099,-9.895325,19.836426,2.040837,1.509461,-8.259824,-2.145953
14.412738,3.707886,18.058777,-9.357478,1.148412,-8.641231,-2.216606
14.428344,-2.868652,21.034241,-7.717158,-0.027543,-10.656639,-3.017740
14.443947,-8.209229,23.452759,1.514409,-0.316143,-10.055490,-2.906971
14.459549,-7.606506,25.360107,2.811406,0.268242,-9.517808,-2.475867
14.475163,-2.319336,25.970459,4.352544,-0.127535,-9.155560,-2.715968
14.490764,-0.267029,20.927429,3.391240,0.606539,-9.170529,-3.167429
14.506357,-5.882263,20.462036,2.773259,0.102986,-9.841734,-3.288378
14.521971,-13.832092,21.614075,2.239202,-0.192200,-9.613608,-3.486566
14.537574,-20.133972,24.742126,1.445745,-0.519719,-9.544153,-3.177608
14.553175,-25.802612,29.373169,3.009770,-0.644260,-9.568702,-2.883619
14.568781,-32.150269,40.351868,6.847356,0.102986,-8.808283,-3.244070
14.584382,-32.287598,48.904419,12.744878,0.747845,-9.138796,-3.436869
14.599982,-30.677795,52.436829,9.616826,0.908910,-9.168135,-3.512911
14.615548,-30.906677,53.886414,3.192876,0.670007,-9.263337,-3.724271
14.631135,-45.997620,58.479309,-9.166743,-0.180824,-7.643106,-1.876514
14.646720,-33.737183,48.484802,-2.620723,-0.337099,-7.931107,-4.927170
14.662311,-60.363770,21.064758,28.408026,-0.354463,-7.018006,-3.070431
14.677891,-34.667969,10.292053,9.616826,-0.305964,-6.689888,-7.000059
14.693474,-28.816223,1.243591,8.983586,0.147892,-6.980883,-4.851128
14.709068,-26.412964,0.343323,-1.529719,-0.906515,-8.873548,-3.667988
14.724656,-16.532898,5.462646,3.757451,-1.575324,-8.646021,-5.927091
14.740248,-17.387390,9.437561,4.398320,-0.999322,-9.604029,-4.846338
14.755839,-12.985229,4.226685,2.963994,-1.143023,-8.599916,-4.511035
14.771413,-9.521484,6.843567,1.094792,-0.248483,-8.718470,-4.211059
14.786994,-10.131836,6.065369,-0.133540,-0.149689,-8.598120,-5.625917
14.802585,-10.025024,0.610352,-2.056148,0.340692,-8.878338,-4.904417
14.818174,-6.027222,-1.358032,-2.658870,-0.004790,-8.606503,-4.829573
14.833761,-4.272461,-2.380371,-3.170039,0.443079,-8.452622,-4.922978
14.849367,-2.792358,-3.356934,-5.329158,0.296982,-8.627460,-5.032551
14.864992,-1.266479,-5.844116,-5.733516,-0.146096,-8.486752,-5.154098
14.880556,1.853943,-3.219604,-5.123164,0.296982,-8.743618,-5.107395
14.896159,5.363464,-3.189087,-5.458858,0.341889,-8.590935,-5.172060
14.911758,9.628296,-3.829956,-4.489924,-0.374821,-8.489147,-4.689464
14.927336,8.544922,-2.090454,-3.444697,0.046104,-9.007668,-4.744550
14.942922,7.057190,-3.517151,-3.948237,-0.178429,-9.095087,-4.608632
14.958540,6.393433,-1.762390,-1.071956,-0.284409,-9.216035,-4.431401
14.974134,4.051208,-1.113892,-1.598384,0.070054,-9.142388,-4.212855
14.989729,0.991821,0.343323,0.110601,-0.062271,-9.133407,-4.186510
15.005314,-1.335144,1.548767,1.468633,0.129331,-9.002279,-4.477505
15.020918,-1.693726,1.502991,1.872991,0.174836,-8.798703,-4.748142
15.036513,-1.632690,1.007080,1.857732,0.035327,-8.802895,-4.776284
15.052094,-0.305176,-0.061035,0.598882,-0.020956,-8.773556,-4.882862
15.067677,1.518250,-0.602722,-0.377681,-0.049098,-9.038804,-4.739759
15.083264,3.143311,-0.465393,-0.560786,-0.086819,-8.937016,-4.633181
15.098846,3.242493,-0.350952,-0.370051,0.032932,-9.022038,-4.490079
15.114431,2.052307,-0.442505,-0.095393,0.049098,-9.016650,-4.415235
15.130028,0.091553,-0.122070,-0.003840,-0.019160,-9.037606,-4.346377
15.145613,-1.380920,-0.434875,0.041936,0.026944,-8.984317,-4.527800
15.161194,-1.327515,-0.488281,0.049565,0.099992,-8.908276,-4.684674
15.176778,-0.389099,-0.473022,-0.179316,0.085023,-8.886121,-4.800833
15.192392,1.052856,0.106812,0.003789,-0.158670,-8.781339,-4.675094
15.207984,2.082825,0.297546,0.499700,0.075443,-8.940009,-4.691859
15.223583,2.571106,-1.029968,-0.591304,0.166454,-9.033415,-4.704433
15.239149,3.265381,-0.137329,-0.301387,-0.026345,-9.128617,-4.598454
15.254745,3.417969,-0.320435,-0.942256,-0.434097,-9.143586,-4.520615
15.270325,3.067017,-0.183105,-0.919368,0.068258,-8.740025,-4.689464
15.285918,1.502991,-2.136230,-4.077937,0.111967,-8.924441,-4.611626
15.301496,2.380371,-3.479004,-5.512263,0.171843,-8.840616,-4.700242
15.317075,2.471924,-4.516602,-9.151484,0.270038,-9.101074,-4.434394
15.332677,2.899170,-5.950928,-8.396174,0.099393,-9.085506,-4.631385
15.348242,3.990173,-5.943298,-7.961299,0.255070,-9.045989,-4.551751
15.363826,5.752563,-5.752563,-9.304072,-0.086221,-8.998687,-4.338594
15.379409,6.958008,-5.455017,-9.189631,-0.138911,-8.862171,-4.758920
15.394993,8.781433,-5.828857,-8.525874,0.143701,-8.854387,-4.563725
15.410604,8.377075,-7.072449,-9.326961,0.028740,-8.870554,-4.493073
15.426207,4.455566,-7.385254,-8.327510,0.010179,-8.966354,-4.504449
15.441854,1.052856,-12.908936,-8.075740,0.267045,-9.036408,-4.552948
15.457473,0.411987,-16.952515,-8.342769,0.553848,-8.775950,-4.579892
15.473067,-3.303528,-19.767761,-8.075740,0.713716,-8.739427,-4.863103
15.488679,-5.554199,-23.025513,-10.517146,0.585582,-9.056767,-4.572108
15.504272,-5.790710,-25.230408,-11.112239,0.467029,-8.538843,-4.450561
15.519873,-6.416321,-28.480530,-16.719843,0.290396,-8.744815,-3.818875
15.535475,-1.998901,-27.816772,-17.360712,0.123942,-9.041199,-4.397272
15.551071,-2.159119,-27.908325,-18.314386,0.622705,-9.038205,-4.880467
15.566659,3.501892,-30.868530,-21.160151,1.229843,-9.174122,-4.745148
15.582225,2.700806,-37.170410,-21.549250,0.865201,-8.707093,-4.770296
15.597818,-2.616882,-36.994934,-19.603754,0.415536,-8.691525,-4.642162
15.613405,-8.514404,-34.538269,-16.582514,0.203577,-8.613688,-4.869689
15.628992,-12.069702,-33.081055,-15.255000,0.104782,-8.735235,-4.460141
15.644585,-11.383057,-31.333923,-15.239741,0.207768,-8.727451,-3.912280
15.660175,-14.518738,-28.930664,-16.872431,0.830473,-8.181387,-3.647631
15.675763,-6.210327,-27.366638,-17.299677,0.529299,-7.739506,-6.071390
15.691367,-6.607056,-27.984619,-16.414667,-0.581391,-8.648416,-5.167869
15.706962,-6.340027,-22.743225,-13.927485,-0.927471,-9.371113,-3.818875
15.722541,-2.204895,-14.907837,-7.732417,-0.586780,-8.782537,-4.411642
15.738128,-2.426147,-9.437561,-4.268672,0.053888,-8.863369,-4.279916
15.753751,-0.022888,-3.799438,-0.942256,-0.188009,-8.921448,-4.584682
15.769341,-1.480103,-0.938416,0.858281,-0.080233,-8.831635,-4.873880
15.784934,-2.494812,0.480652,1.888250,0.296384,-8.799900,-4.789456
15.800523,-2.876282,2.151489,4.512761,0.337698,-8.885523,-4.777481
15.816085,-3.028870,2.746582,6.595586,0.410746,-8.752599,-4.797240
15.831673,-3.059387,2.677917,8.495305,0.436492,-8.933423,-4.675094
15.847255,-4.066467,2.647400,9.380315,0.349673,-8.881930,-4.878671
15.862851,-4.882812,4.364014,10.066960,-0.081431,-8.295749,-4.818196
15.878455,-1.228333,2.693176,7.953618,-0.355062,-9.369316,-5.015187
15.894067,-0.381470,4.241943,7.945989,-0.321531,-9.569301,-4.176331
15.909677,1.907349,3.509521,5.680058,0.095801,-8.979527,-4.763111
15.925289,1.441956,2.281189,3.559087,0.179028,-8.879535,-5.106197
15.940892,1.129150,1.052856,1.506780,0.129331,-8.707093,-4.831968
15.956493,1.190186,-1.266479,-1.140620,-0.116757,-8.753797,-4.853523
15.972082,2.197266,-2.700806,-3.078486,-0.209564,-8.776549,-5.025964
15.987678,2.815247,-2.799988,-3.925349,-0.443079,-8.604108,-4.928367
16.003294,4.318237,-2.525330,-5.146052,-0.298180,-8.747211,-4.933157
16.018904,5.859375,-2.876282,-5.794551,-0.092807,-8.807684,-4.887053
16.034512,6.431580,-3.067017,-5.802180,0.628094,-9.040001,-4.699643
16.050107,6.134033,-1.136780,-3.910090,0.464634,-8.890312,-4.544565
16.065707,4.890442,-0.076294,-1.338984,0.323926,-9.262738,-4.295484
16.081308,3.509521,0.831604,0.644658,0.125739,-8.957373,-4.449363
16.096911,0.938416,3.875732,2.613042,0.340692,-8.947793,-4.577497
16.112512,-0.961304,1.716614,2.078984,0.343087,-8.783734,-4.690661
16.128106,-1.075745,1.708984,2.780889,-0.086221,-8.702902,-4.920584
16.143709,-1.167297,1.213074,2.071355,0.164059,-8.998687,-4.811011
16.159330,0.648499,-0.358582,0.904058,-0.227527,-8.693322,-4.899028
16.174902,1.289368,0.259399,0.888799,0.034129,-9.022637,-4.772092
16.190492,3.242493,-0.556946,-0.537898,0.016765,-8.851993,-4.759519
16.206083,3.387451,-0.862122,-1.316096,-0.086819,-9.018446,-4.562528
16.221649,1.716614,-0.953674,-1.575496,0.026944,-8.917855,-4.411043
16.237236,-0.556946,-0.747681,-1.056697,0.147294,-8.975336,-4.551751
16.252817,-1.762390,-0.480652,-0.530269,0.323328,-8.926837,-4.664915
16.268407,-1.785278,-0.534058,0.019048,0.325723,-8.903485,-4.774487
16.283994,-1.388550,-0.205994,0.278447,0.146695,-8.804091,-4.813406
16.299590,-0.022888,0.419617,1.026128,-0.026345,-8.752000,-4.872683
16.315157,0.671387,0.617981,0.896428,-0.050894,-8.760982,-4.754129
16.330742,1.258850,0.511169,0.774358,0.288001,-8.842412,-4.788857
16.346339,1.342773,-0.282288,0.110601,-0.046703,-8.909472,-4.672100
16.361935,1.258850,-0.534058,-0.286128,0.020358,-9.192085,-4.588873
16.377532,0.846863,-0.595093,-0.293757,0.005988,-8.914862,-4.630188
16.393135,0.000000,-0.434875,-0.682856,0.183219,-8.945398,-4.660724
16.408757,-0.564575,-0.732422,-0.690486,0.141905,-8.825048,-4.713414
16.424371,-0.381470,-0.633240,-0.171687,0.205972,-8.823851,-4.770296
16.439959,-0.175476,-0.076294,0.415776,0.108973,-8.853189,-4.757722
16.455559,0.358582,0.228882,0.804875,0.136516,-9.017248,-4.707427
16.471161,0.640869,0.312805,0.759099,0.097597,-8.980724,-4.634378
16.486764,1.480103,0.007629,0.263188,0.047302,-8.874146,-4.758920
16.502360,-2.662659,1.686096,-0.057246,-0.074844,-8.140073,-4.840949
16.517971,0.473022,-0.328064,-0.225093,0.004790,-8.996891,-4.706828
16.533574,0.251770,-0.656128,-0.415828,0.067061,-9.030421,-4.767901
16.549180,0.656128,-0.686646,-0.598933,0.197589,-8.843011,-4.858912
16.564783,0.411987,-0.534058,-0.217463,0.001796,-8.743019,-4.727186
16.580394,0.572205,-0.343323,-0.019099,0.156874,-8.784931,-4.769697
16.595998,0.457764,0.175476,0.446294,0.186213,-8.850795,-4.749938
16.611600,0.602722,0.045776,0.385259,0.095202,-8.847202,-4.721797
16.627194,0.610352,0.076294,0.431035,0.080832,-8.893905,-4.664915
16.642801,0.389099,-0.213623,0.286077,0.045505,-8.740623,-4.669705
16.658404,0.236511,-0.236511,-0.125911,0.005389,-8.905880,-4.653539
16.674006,0.205994,-0.511169,-0.263240,0.108973,-9.042995,-4.727785
16.689619,0.343323,-0.457764,-0.438716,0.120350,-8.882528,-4.734970
16.705225,0.267029,-0.480652,-0.362422,0.109572,-8.856782,-4.727186
16.720841,0.526428,-0.228882,0.072454,0.088017,-8.847801,-4.733772
16.736453,0.419617,-0.198364,0.339482,0.143102,-8.867559,-4.720001
16.752056,0.411987,-0.045776,0.209783,0.116757,-9.019644,-4.694853
16.767675,0.251770,-0.144958,0.370000,0.089214,-8.901689,-4.693057
16.783292,0.213623,-0.190735,0.133489,0.073048,-8.892109,-4.679285
16.798905,0.106812,-0.091553,0.041936,0.071252,-9.041798,-4.702637
16.814493,0.053406,-0.312805,-0.194575,0.070653,-8.890312,-4.712217
16.830070,0.282288,-0.518799,-0.255610,0.104183,-8.884325,-4.724791
16.845540,0.495911,-0.350952,-0.209834,0.079634,-8.865165,-4.739759
16.861009,0.595093,-0.305176,-0.164058,0.112566,-8.886121,-4.719402
16.876545,0.595093,-0.114441,0.148748,0.120948,-8.868757,-4.705032
16.892133,0.381470,0.030518,0.202153,0.122745,-8.887319,-4.699643
16.907731,0.251770,-0.144958,0.308965,0.073647,-8.885523,-4.671502
16.923319,0.137329,-0.129700,0.217412,0.059277,-8.881930,-4.666711
16.938899,0.251770,-0.419617,0.164006,0.062271,-8.883726,-4.705630
16.954487,0.076294,-0.419617,-0.164058,0.073048,-8.872949,-4.724192
16.970073,0.381470,-0.411987,-0.209834,0.075443,-8.866363,-4.728982
16.985657,0.450134,-0.404358,-0.240352,0.084424,-8.875942,-4.719402
17.001256,0.572205,-0.305176,0.011418,0.120350,-8.884924,-4.722395
17.016859,0.572205,-0.213623,0.034307,0.104183,-8.881331,-4.717007
17.032449,0.434875,-0.106812,0.179265,0.100591,-8.882528,-4.684674
17.048034,0.274658,-0.076294,0.301335,0.087418,-8.898695,-4.692458
17.063617,0.045776,-0.144958,0.186895,0.082628,-8.889115,-4.675693
17.079218,0.137329,-0.267029,0.171636,0.085622,-8.879535,-4.711618
17.094844,0.251770,-0.373840,-0.080134,0.092208,-8.871152,-4.714013
17.110427,0.434875,-0.411987,-0.156428,0.098795,-8.873548,-4.715809
17.126018,0.549316,-0.312805,-0.080134,0.095202,-8.880134,-4.718204
17.141590,0.465393,-0.297546,-0.095393,0.117955,-8.884924,-4.714013
17.157170,0.442505,-0.205994,-0.003840,0.122146,-8.881930,-4.700242
17.172757,0.251770,-0.244141,0.171636,0.109572,-8.875942,-4.695452
17.188328,0.251770,-0.083923,0.247930,0.091011,-8.900492,-4.700242
17.203907,0.228882,-0.175476,0.209783,0.088616,-8.866961,-4.705032
17.219482,0.244141,-0.167847,0.064824,0.086819,-8.870554,-4.712816
17.235063,0.274658,-0.381470,-0.103022,0.096998,-8.878338,-4.708624
17.250647,0.419617,-0.335693,-0.087764,0.087418,-8.855585,-4.724192
17.266225,0.442505,-0.312805,-0.095393,0.091011,-8.862171,-4.727785
17.281779,0.526428,-0.274658,-0.064875,0.101190,-8.886720,-4.704433
17.297362,0.389099,-0.366211,0.041936,0.113763,-8.897497,-4.691859
17.312962,0.274658,-0.213623,0.019048,0.096998,-8.882528,-4.689464
17.328561,0.213623,-0.152588,0.164006,0.102387,-8.886121,-4.699044
17.344160,0.251770,-0.198364,0.095342,0.088017,-8.884325,-4.709822
17.359770,0.190735,-0.183105,0.064824,0.085622,-8.883726,-4.727186
17.375379,0.297546,-0.267029,0.026677,0.091011,-8.862770,-4.720599
17.390987,0.457764,-0.259399,-0.057246,0.083227,-8.878936,-4.711020
17.406583,0.495911,-0.335693,-0.133540,0.088616,-8.891510,-4.711020
17.422187,0.488281,-0.343323,-0.125911,0.098196,-8.878936,-4.727186
17.437790,0.457764,-0.419617,0.125859,0.091610,-8.874744,-4.697847
17.453389,0.389099,-0.114441,0.118230,0.088616,-8.890312,-4.706229
17.468996,0.190735,-0.167847,0.148748,0.091011,-8.889115,-4.725389
17.484599,0.244141,-0.183105,0.164006,0.095801,-8.880134,-4.697847
17.500199,0.190735,-0.045776,0.057195,0.113763,-8.887918,-4.727186
17.515801,0.267029,-0.160217,0.003789,0.080233,-8.867559,-4.720001
17.531401,0.419617,-0.259399,-0.125911,0.090412,-8.874146,-4.710421
17.547001,0.572205,-0.305176,-0.118281,0.098196,-8.874146,-4.715809
17.562618,0.427246,-0.259399,-0.011470,0.110770,-8.868158,-4.693057
17.578219,0.373840,-0.320435,0.110601,0.095801,-8.887918,-4.678687
17.593821,0.244141,-0.198364,0.087712,0.102387,-8.878338,-4.678687
17.609428,0.251770,-0.114441,0.148748,0.096400,-8.898695,-4.709822
17.625030,0.328064,-0.320435,0.179265,0.088616,-8.893905,-4.710421
17.640631,0.343323,-0.305176,0.011418,0.089813,-8.877739,-4.724192
17.656231,0.244141,-0.091553,0.003789,0.100591,-8.879535,-4.717007
17.671837,0.381470,-0.335693,-0.110652,0.103585,-8.880134,-4.707427
17.687444,0.297546,-0.358582,-0.019099,0.106578,-8.869955,-4.704433
17.703053,0.350952,-0.221252,-0.026729,0.108973,-8.865764,-4.704433
17.718650,0.236511,-0.251770,0.102971,0.110770,-8.892109,-4.691859
17.734252,0.320435,-0.228882,0.133489,0.088616,-8.869356,-4.689464
17.749846,0.305176,-0.061035,0.194524,0.086221,-8.875343,-4.703236
17.765445,0.114441,-0.251770,0.118230,0.096400,-8.878338,-4.709223
17.781055,0.175476,-0.282288,-0.019099,0.094005,-9.034613,-4.698445
17.796671,0.450134,-0.343323,-0.064875,0.104782,-8.877739,-4.724192
17.812278,0.442505,-0.289917,-0.041987,0.089813,-8.887319,-4.697847
17.827879,0.434875,-0.282288,-0.080134,0.103585,-8.879535,-4.695452
17.843477,0.450134,-0.198364,-0.034358,0.106578,-8.893905,-4.721797
17.859079,0.289917,-0.183105,0.026677,0.102387,-8.873548,-4.722994
17.874682,0.427246,-0.312805,0.064824,0.116158,-8.876541,-4.686471
17.890286,0.236511,-0.083923,0.110601,0.098795,-8.740025,-4.694254
17.905900,0.244141,-0.205994,0.026677,0.091011,-9.038205,-4.706229
17.921499,0.396729,-0.152588,-0.034358,0.105980,-8.738229,-4.696649
17.937099,0.328064,-0.312805,0.011418,0.094005,-8.877739,-4.734970
17.952689,0.320435,-0.328064,-0.011470,0.094005,-8.880134,-4.711020
17.968297,0.503540,-0.335693,0.019048,0.090412,-8.889713,-4.711020
17.983885,0.251770,-0.144958,-0.041987,0.081431,-8.866961,-4.718803
17.999480,0.358582,-0.152588,0.034307,0.096998,-8.861572,-4.711020
18.015079,0.312805,-0.244141,0.072454,0.095202,-8.879535,-4.706828
18.030699,0.289917,-0.320435,0.041936,0.096998,-8.883726,-4.702637
18.046323,0.366211,-0.259399,0.095342,0.082628,-9.026230,-4.718204
18.061926,0.366211,-0.305176,0.072454,0.101788,-8.877140,-4.691859
18.077535,0.389099,-0.205994,0.011418,0.094603,-9.025631,-4.694254
18.093139,0.473022,-0.213623,-0.003840,0.092807,-8.887319,-4.711020
18.108756,0.297546,-0.251770,-0.003840,0.105980,-8.878936,-4.706828
18.124363,0.358582,-0.236511,-0.019099,0.097597,-8.883726,-4.716408
18.139958,0.152588,-0.366211,0.087712,0.104183,-8.881930,-4.703236
18.155557,0.289917,-0.282288,0.041936,0.079634,-8.739427,-4.724791
18.171164,0.251770,-0.122070,0.072454,0.091011,-8.896899,-4.721797
18.186762,0.381470,-0.366211,0.171636,0.088017,-8.870554,-4.709822
18.202365,0.289917,-0.259399,0.118230,0.094603,-8.871751,-4.706229
18.217979,0.457764,-0.267029,0.064824,0.113763,-8.882528,-4.720599
18.233589,0.373840,-0.350952,-0.019099,0.102986,-8.890911,-4.699643
18.249178,0.373840,-0.289917,-0.019099,0.108375,-8.890911,-4.693655
18.264777,0.381470,-0.350952,0.057195,0.080233,-8.863967,-4.700242
18.280386,0.205994,-0.282288,0.011418,0.089214,-8.872350,-4.703834
18.295992,0.373840,-0.274658,0.110601,0.108375,-8.876541,-4.708624
18.311596,0.457764,-0.289917,0.011418,0.099393,-8.880134,-4.726587
18.327214,0.289917,-0.137329,-0.003840,0.096400,-8.873548,-4.725389
18.342826,0.366211,-0.198364,0.110601,0.084424,-8.875942,-4.721797
18.358441,0.312805,-0.289917,0.080083,0.097597,-8.886121,-4.731377
18.374039,0.373840,-0.160217,0.026677,0.085622,-8.884325,-4.705032
18.389637,0.450134,-0.198364,0.087712,0.113165,-8.881331,-4.681680
18.405238,0.221252,-0.282288,-0.064875,0.077838,-8.887319,-4.706828
18.420849,0.373840,-0.167847,0.102971,0.085622,-8.885523,-4.720599
18.436453,0.282288,-0.015259,0.064824,0.099393,-8.874146,-4.708624
18.452056,0.274658,-0.358582,0.026677,0.087418,-8.877739,-4.721198
18.467669,0.183105,-0.259399,0.102971,0.105980,-8.880733,-4.706229
18.483279,0.236511,-0.167847,-0.019099,0.068258,-8.868757,-4.703834
18.498880,0.411987,-0.221252,0.011418,0.094005,-8.876541,-4.702038
18.514477,0.396729,-0.152588,-0.003840,0.100591,-8.873548,-4.705630
18.530079,0.198364,-0.297546,0.072454,0.109572,-8.888516,-4.714612
18.545680,0.473022,-0.282288,-0.003840,0.108375,-8.889115,-4.724791
18.561285,0.328064,-0.282288,-0.087764,0.094603,-8.862171,-4.691260
18.576887,0.305176,-0.312805,0.064824,0.098196,-8.876541,-4.717606
18.592486,0.205994,-0.335693,0.041936,0.117955,-8.899294,-4.700840
18.608089,0.236511,-0.358582,0.102971,0.095801,-8.876541,-4.728982
18.623695,0.511169,-0.282288,0.041936,0.089214,-8.889115,-4.740957
18.639306,0.343323,-0.358582,0.072454,0.088017,-8.886121,-4.728383
18.654913,0.381470,-0.320435,-0.011470,0.092807,-8.874744,-4.715809
18.670516,0.396729,-0.381470,0.057195,0.096400,-8.883726,-4.711618
18.686128,0.389099,-0.236511,0.080083,0.080233,-8.878936,-4.700840
18.701743,0.366211,-0.228882,-0.064875,0.107177,-8.879535,-4.699643
18.717344,0.381470,-0.221252,0.171636,0.101190,-8.875343,-4.687668
18.732942,0.251770,-0.137329,0.087712,0.104183,-8.880733,-4.694254
18.748546,0.282288,-0.305176,0.202153,0.087418,-8.890312,-4.699044
18.764125,0.381470,-0.160217,0.049565,0.089813,-8.889115,-4.739161
18.779739,0.320435,-0.259399,0.003789,0.108375,-8.883726,-4.728383
18.795340,0.297546,-0.274658,-0.049617,0.075443,-8.869955,-4.705630
18.810942,0.473022,-0.419617,0.095342,0.098795,-8.889713,-4.708624
18.826550,0.320435,-0.335693,0.026677,0.101788,-8.879535,-4.702038
18.842130,0.282288,-0.152588,0.011418,0.098196,-8.880733,-4.681082
18.857743,0.205994,-0.244141,0.064824,0.098795,-8.883127,-4.692458
18.873344,0.366211,-0.274658,0.057195,0.091011,-8.878338,-4.709223
18.888941,0.381470,-0.190735,0.080083,0.092208,-8.880733,-4.711618
18.904541,0.343323,-0.335693,0.095342,0.091610,-8.880733,-4.692458
18.920139,0.289917,-0.274658,0.049565,0.086221,-8.879535,-4.703236
18.935736,0.411987,-0.205994,0.110601,0.086221,-8.881930,-4.714612
18.951338,0.411987,-0.274658,0.087712,0.079634,-8.884325,-4.704433
18.966935,0.411987,-0.312805,0.011418,0.108375,-8.883127,-4.705032
18.982528,0.244141,-0.259399,0.034307,0.082029,-8.871751,-4.709822
18.998149,0.343323,-0.244141,0.026677,0.104183,-8.863967,-4.716408
19.013762,0.198364,-0.213623,-0.026729,0.100591,-8.877140,-4.714013
19.029318,0.343323,-0.198364,0.041936,0.101788,-8.867559,-4.709223
19.044917,0.358582,-0.198364,-0.034358,0.111368,-8.891510,-4.711618
19.060539,0.389099,-0.244141,0.057195,0.088616,-8.883726,-4.709822
19.076130,0.450134,-0.213623,0.064824,0.094005,-8.884924,-4.700242
19.091744,0.427246,-0.251770,-0.095393,0.102387,-8.879535,-4.736167
19.107347,0.297546,-0.267029,0.049565,0.101788,-8.898096,-4.710421
19.122994,0.205994,-0.221252,0.087712,0.085622,-8.883726,-4.700242
19.138618,0.358582,-0.251770,0.026677,0.099393,-8.870554,-4.694853
19.154228,0.350952,-0.297546,0.095342,0.103585,-8.883127,-4.702038
19.169811,0.411987,-0.228882,0.041936,0.089813,-8.882528,-4.700242
19.185418,0.350952,-0.312805,0.019048,0.106578,-8.886121,-4.691260
19.201020,0.411987,-0.297546,-0.072505,0.102387,-8.887319,-4.722994
19.216622,0.267029,-0.190735,-0.026729,0.083826,-8.874744,-4.718204
19.232232,0.358582,-0.167847,0.011418,0.089813,-8.860374,-4.713414
19.247843,0.297546,-0.419617,0.026677,0.093406,-8.875942,-4.720001
19.263456,0.343323,-0.320435,0.110601,0.095801,-8.886720,-4.728383
19.279060,0.320435,-0.221252,0.064824,0.085023,-8.885523,-4.699643
19.294686,0.289917,-0.274658,0.102971,0.104782,-8.865165,-4.712217
19.310269,0.328064,-0.244141,0.072454,0.091610,-8.875942,-4.715210
19.325861,0.404358,-0.282288,0.110601,0.096400,-8.878338,-4.711020
19.341435,0.297546,-0.251770,0.011418,0.121547,-8.880733,-4.708025
19.357031,0.404358,-0.282288,0.057195,0.110171,-8.875343,-4.691859
19.372626,0.480652,-0.114441,0.049565,0.096998,-8.878338,-4.711618
19.388247,0.297546,-0.205994,0.049565,0.092208,-8.874146,-4.699643
19.403844,0.389099,-0.167847,-0.064875,0.104183,-8.886121,-4.710421
19.419448,0.396729,-0.282288,0.064824,0.087418,-8.884325,-4.730778
19.435051,0.381470,-0.244141,0.019048,0.088616,-8.878338,-4.723593
19.450661,0.396729,-0.083923,0.049565,0.111967,-8.878338,-4.717606
19.466265,0.450134,-0.343323,0.057195,0.101190,-8.865764,-4.706229
19.481842,0.251770,-0.305176,0.026677,0.097597,-8.889115,-4.720599
19.497452,0.289917,-0.167847,0.003789,0.084424,-8.863967,-4.689464
19.513054,0.396729,-0.183105,0.064824,0.096998,-8.883127,-4.712816
19.528668,0.320435,-0.305176,-0.057246,0.117356,-8.876541,-4.701439
19.544280,0.396729,-0.236511,0.026677,0.091011,-8.898695,-4.708025
19.559882,0.297546,-0.259399,0.064824,0.090412,-8.883726,-4.703236
19.575483,0.267029,-0.343323,-0.072505,0.082628,-8.881930,-4.701439
19.591082,0.450134,-0.274658,0.003789,0.108375,-8.885523,-4.736167
19.606673,0.427246,-0.404358,0.064824,0.097597,-8.874744,-4.717007
19.622285,0.358582,-0.328064,0.011418,0.111967,-8.869955,-4.706828
19.637874,0.381470,-0.289917,-0.057246,0.092807,-8.890312,-4.708025
19.653477,0.259399,-0.160217,-0.049617,0.095801,-8.871751,-4.696051
19.669078,0.343323,-0.190735,-0.003840,0.106578,-8.887319,-4.715210
19.684680,0.480652,-0.335693,0.034307,0.110770,-8.886121,-4.694254
19.700282,0.297546,-0.358582,0.003789,0.097597,-8.877739,-4.713414
19.715875,0.320435,-0.289917,0.072454,0.095801,-8.887918,-4.713414
19.731475,0.350952,-0.267029,0.003789,0.095801,-8.866363,-4.670304
19.747075,0.335693,-0.236511,0.064824,0.091011,-8.884325,-4.687668
19.762682,0.427246,-0.267029,0.019048,0.117955,-8.870554,-4.706828
19.778285,0.366211,-0.282288,0.041936,0.085023,-8.865165,-4.696051
19.793889,0.305176,-0.259399,-0.003840,0.102986,-8.874146,-4.718204
19.809489,0.152588,-0.259399,0.011418,0.096998,-8.881930,-4.691260
19.825090,0.305176,-0.305176,0.087712,0.101788,-8.874744,-4.685273
19.840697,0.289917,-0.350952,0.087712,0.092208,-8.883127,-4.699643
19.856305,0.427246,-0.160217,0.156377,0.080233,-8.884924,-4.706828
19.871912,0.411987,-0.267029,-0.034358,0.104782,-9.030421,-4.705630
19.887514,0.328064,-0.328064,0.064824,0.104183,-8.742420,-4.722395
19.903113,0.251770,-0.328064,0.026677,0.091610,-8.881930,-4.710421
19.918716,0.305176,-0.183105,0.057195,0.094005,-8.890312,-4.721198
19.934316,0.381470,-0.366211,-0.019099,0.082029,-9.029223,-4.702637
19.949936,0.259399,-0.045776,-0.057246,0.091011,-8.876541,-4.731976
19.965534,0.396729,-0.259399,0.057195,0.083227,-8.877739,-4.714612
19.981135,0.282288,-0.305176,0.087712,0.101190,-8.882528,-4.676291
19.996756,0.366211,-0.213623,0.019048,0.126337,-8.868158,-4.703236
20.012364,0.305176,-0.236511,-0.049617,0.071851,-8.883127,-4.706229
20.027966,0.366211,-0.320435,0.118230,0.090412,-8.868158,-4.712816
20.043571,0.228882,-0.312805,0.026677,0.100591,-8.886720,-4.700840
20.059172,0.343323,-0.160217,-0.057246,0.078437,-8.884924,-4.696051
20.074776,0.373840,-0.061035,0.087712,0.107177,-8.883127,-4.709822
20.090368,0.312805,-0.228882,0.049565,0.086221,-8.887918,-4.712217
20.105970,0.465393,-0.244141,0.049565,0.094603,-9.028027,-4.725988
20.121570,0.274658,-0.198364,0.064824,0.107776,-8.874744,-4.693057
20.137171,0.419617,-0.198364,0.034307,0.104183,-8.864566,-4.693057
20.152771,0.358582,-0.244141,0.049565,0.101190,-8.885523,-4.695452
20.168382,0.267029,-0.198364,0.011418,0.098196,-8.875942,-4.711020
20.183987,0.411987,-0.152588,0.041936,0.095801,-8.886720,-4.714612
20.199590,0.457764,-0.236511,0.041936,0.101190,-8.879535,-4.721797
20.215192,0.473022,-0.404358,0.034307,0.107177,-8.870554,-4.715809
20.230786,0.373840,-0.244141,-0.011470,0.092807,-8.887319,-4.693655
20.246393,0.404358,-0.144958,0.026677,0.092208,-8.879535,-4.724192
20.261981,0.251770,-0.198364,0.019048,0.100591,-8.878338,-4.704433
20.277590,0.221252,-0.274658,0.064824,0.113165,-8.884325,-4.711020
20.293201,0.419617,-0.106812,0.011418,0.076641,-8.871152,-4.721797
20.308800,0.221252,-0.297546,0.072454,0.099393,-8.887319,-4.727186
20.324398,0.267029,-0.267029,0.072454,0.105381,-8.899893,-4.707427
20.339992,0.328064,-0.228882,0.034307,0.092208,-8.886720,-4.712217
20.355599,0.358582,-0.122070,0.003789,0.101788,-8.881930,-4.706828
20.371185,0.373840,-0.183105,-0.019099,0.074844,-8.893307,-4.722994
20.386790,0.320435,-0.251770,-0.034358,0.089813,-8.893905,-4.707427
20.402349,0.244141,-0.236511,0.041936,0.089214,-8.877739,-4.718204
20.417966,0.434875,-0.198364,-0.072505,0.100591,-8.894504,-4.699044
20.433574,0.198364,-0.205994,-0.049617,0.091011,-8.864566,-4.694853
20.449177,0.236511,-0.160217,-0.003840,0.105980,-8.877739,-4.706229
20.464781,0.389099,-0.267029,0.110601,0.103585,-8.884325,-4.698445
20.480389,0.213623,-0.335693,0.003789,0.109572,-8.884325,-4.699044
20.495994,0.495911,-0.137329,-0.064875,0.092208,-8.887319,-4.709822
20.511597,0.297546,-0.228882,-0.057246,0.086221,-8.884924,-4.700242
20.527199,0.381470,-0.289917,-0.049617,0.091011,-8.889115,-4.701439
20.542784,0.274658,-0.213623,0.064824,0.103585,-8.873548,-4.717606
20.558390,0.350952,-0.267029,-0.011470,0.097597,-8.877140,-4.692458
20.573995,0.358582,-0.289917,0.034307,0.098196,-8.893307,-4.730778
20.589593,0.358582,-0.305176,-0.057246,0.091011,-8.872949,-4.724192
20.605214,0.198364,-0.236511,0.011418,0.108973,-8.872949,-4.719402
20.620803,0.389099,-0.198364,-0.095393,0.082628,-8.863369,-4.707427
20.636405,0.282288,-0.160217,0.011418,0.095801,-8.880733,-4.686471
20.652004,0.259399,-0.228882,-0.064875,0.111368,-8.871751,-4.716408
20.667598,0.396729,-0.274658,0.041936,0.105980,-8.881331,-4.708624
20.683182,0.350952,-0.221252,-0.072505,0.078437,-8.871152,-4.715809
20.698807,0.251770,-0.259399,-0.049617,0.085023,-8.868757,-4.718803
20.714404,0.358582,-0.144958,0.034307,0.105381,-8.872350,-4.708624
20.729988,0.099182,-0.167847,0.072454,0.101190,-8.885523,-4.694254
