Timestamp,Gyro_X_dps,Gyro_Y_dps,Gyro_Z_dps,Accel_X_mps2,Accel_Y_mps2,Accel_Z_mps2
0.005503,0.457764,-0.068665,-0.003840,-0.052690,8.619077,4.207435
0.021216,0.267029,-0.175476,-0.003840,-0.035925,8.604707,4.203842
0.036979,0.259399,-0.251770,-0.072505,-0.098196,8.646021,4.196058
0.052884,0.343323,-0.335693,0.110601,-0.077838,8.654403,4.206237
0.068780,0.419617,-0.221252,-0.041987,-0.064666,8.607101,4.173306
0.084780,0.389099,-0.335693,-0.026729,-0.060474,8.628057,4.196657
0.100714,0.328064,-0.160217,0.011418,-0.065264,8.654403,4.203243
0.116456,0.297546,-0.274658,0.026677,-0.050295,8.621471,4.182287
0.132075,0.205994,-0.366211,-0.019099,-0.112566,8.602311,4.200849
0.147616,0.320435,-0.373840,0.125859,-0.062869,8.602910,4.214620
0.163144,0.434875,-0.350952,-0.095393,-0.094603,8.623867,4.202046
0.178660,0.389099,-0.289917,-0.041987,-0.088616,8.608299,4.178694
0.194191,0.328064,-0.160217,-0.072505,-0.039518,8.636440,4.190670
0.209825,0.320435,-0.312805,-0.186946,-0.121547,8.631052,4.175701
0.225615,0.389099,-0.228882,-0.026729,-0.099992,8.616681,4.173904
0.241439,0.488281,-0.312805,0.041936,-0.058079,8.657995,4.167917
0.257250,0.335693,-0.289917,-0.049617,-0.110171,8.634046,4.183485
0.273223,0.320435,-0.244141,-0.003840,-0.029938,8.623268,4.165522
0.289226,0.305176,-0.350952,-0.049617,-0.038919,8.626861,4.185281
0.305190,0.297546,-0.328064,0.064824,-0.105381,8.614286,4.200250
0.321037,0.427246,-0.335693,0.087712,-0.006586,8.620274,4.195459
0.336746,0.167847,-0.320435,0.095342,-0.059875,8.649613,4.196058
0.352528,0.579834,-0.221252,-0.080134,-0.075443,8.595126,4.223601
0.368284,0.350952,-0.282288,-0.103022,-0.071851,8.619676,4.210428
0.383968,0.381470,-0.411987,-0.125911,-0.061073,8.602910,4.094869
0.399857,0.274658,-0.251770,0.041936,-0.088017,8.646619,4.218811
0.415580,0.205994,-0.244141,0.080083,-0.046703,8.634046,4.195459
0.431215,0.335693,-0.343323,0.041936,-0.080233,8.608898,4.202046
0.446796,0.511169,-0.152588,0.133489,-0.051493,8.633447,4.194861
0.462400,0.259399,-0.320435,0.072454,-0.045505,8.624465,4.204441
0.478045,0.511169,-0.183105,0.041936,-0.085622,8.621471,4.199651
0.493648,0.213623,-0.228882,0.011418,-0.074246,8.638836,4.191867
0.509516,0.312805,-0.389099,-0.011470,-0.070653,8.624465,4.172108
0.525351,0.335693,-0.221252,0.072454,-0.116158,8.647218,4.148158
0.541179,0.305176,-0.358582,0.049565,-0.061672,8.668175,4.182886
0.557054,0.457764,-0.129700,0.095342,-0.079036,8.614286,4.137381
0.572695,0.335693,-0.221252,-0.011470,-0.071252,8.620872,4.186478
0.589117,0.320435,-0.106812,-0.019099,-0.037123,8.643625,4.178694
0.605399,0.434875,-0.434875,0.049565,-0.091011,8.604108,4.199651
0.621091,0.228882,-0.236511,0.072454,-0.079036,8.608299,4.170312
0.639262,0.350952,-0.274658,0.064824,-0.006586,8.644823,4.191268
0.655570,0.373840,-0.244141,0.064824,-0.102387,8.641829,4.189472
0.671607,0.480652,-0.228882,0.087712,-0.123344,8.632848,4.194262
0.687326,0.350952,-0.282288,-0.133540,-0.036524,8.609496,4.198453
0.705488,0.305176,-0.358582,0.041936,-0.076042,8.655601,4.203243
0.721400,0.381470,-0.320435,-0.041987,0.001796,8.556208,4.212823
0.737346,0.396729,-0.396729,0.110601,-0.055684,8.633447,4.214021
0.753060,0.350952,-0.160217,0.133489,-0.061073,8.616083,4.205040
0.769319,0.213623,-0.251770,-0.003840,-0.028141,8.636440,4.214021
0.785056,0.259399,-0.129700,0.072454,-0.091011,8.604108,4.223601
0.801101,0.381470,-0.320435,0.019048,-0.025746,8.633447,4.179293
0.816735,0.221252,-0.274658,0.041936,-0.075443,8.601712,4.199052
0.832433,0.404358,-0.282288,-0.026729,-0.112566,8.617879,4.191268
0.848194,0.404358,-0.236511,0.019048,-0.080233,8.641231,4.173306
0.864210,0.160217,-0.305176,-0.064875,-0.035327,8.628057,4.206237
0.879852,0.556946,-0.267029,0.087712,-0.067061,8.629255,4.197855
0.895422,0.389099,-0.228882,0.095342,-0.052092,8.614885,4.204441
0.911053,0.488281,-0.312805,0.041936,-0.009580,8.590336,4.225996
0.931149,0.427246,-0.312805,-0.049617,-0.114961,8.633447,4.199052
0.947223,0.495911,-0.198364,0.041936,-0.085023,8.638237,4.188873
0.962866,0.320435,-0.160217,0.072454,-0.079634,8.621471,4.176300
0.978502,0.350952,-0.038147,0.095342,-0.071851,8.646021,4.182287
0.994173,0.335693,-0.137329,0.034307,-0.028141,8.647218,4.169713
1.009787,0.190735,-0.366211,-0.026729,-0.089813,8.587941,4.194861
1.025367,0.358582,-0.144958,0.110601,-0.113763,8.629255,4.203842
1.041085,0.411987,-0.251770,0.049565,-0.052690,8.598719,4.172108
1.056646,0.297546,-0.274658,0.034307,-0.095202,8.616083,4.170911
1.072597,0.396729,-0.267029,-0.003840,-0.067659,8.617280,4.190670
1.088311,0.259399,-0.183105,0.049565,0.013173,8.593929,4.216416
1.104047,0.228882,-0.244141,-0.049617,-0.102387,8.643625,4.209231
1.119938,0.373840,-0.152588,0.156377,-0.071851,8.628057,4.191268
1.135545,0.366211,-0.244141,-0.019099,-0.019160,8.583151,4.201447
1.151147,0.297546,-0.274658,0.057195,-0.098795,8.649014,4.198453
1.166717,0.213623,-0.282288,0.072454,-0.007185,8.611293,4.202645
1.182335,0.244141,-0.267029,-0.003840,-0.079036,8.604108,4.184083
1.197880,0.358582,-0.289917,0.041936,-0.068258,8.622669,4.192466
1.213510,0.175476,-0.297546,-0.011470,-0.077838,8.652607,4.190670
1.229105,0.457764,-0.312805,-0.019099,-0.067659,8.611892,4.183485
1.244691,0.244141,-0.312805,0.041936,-0.095202,8.628656,4.184083
1.260487,0.411987,-0.183105,-0.049617,0.025148,8.651409,4.172707
1.276316,0.251770,-0.404358,-0.034358,-0.083826,8.661588,4.224200
1.292089,0.480652,-0.251770,0.026677,-0.082029,8.604108,4.221805
1.307884,0.343323,-0.221252,0.034307,-0.025746,8.602311,4.198453
1.323748,0.205994,-0.305176,-0.003840,-0.076042,8.598120,4.220008
1.339941,0.427246,-0.152588,0.118230,-0.093406,8.622669,4.190071
1.355844,0.427246,-0.274658,-0.011470,-0.058678,8.620872,4.205040
1.371858,0.419617,-0.183105,0.164006,-0.057480,8.577164,4.193663
1.387850,0.503540,-0.175476,-0.041987,-0.029938,8.571177,4.190071
1.403824,0.251770,-0.213623,0.125859,-0.032333,8.628057,4.187077
1.419662,0.297546,-0.259399,0.102971,-0.123942,8.605904,4.230786
1.435363,0.389099,-0.259399,0.087712,-0.067659,8.624465,4.189472
1.451088,0.244141,-0.221252,-0.003840,-0.063468,8.651409,4.173306
1.466799,0.396729,-0.411987,-0.003840,-0.123942,8.621471,4.146960
1.482457,0.404358,-0.190735,-0.095393,-0.003593,8.641231,4.184682
1.498031,0.373840,-0.282288,-0.003840,-0.077838,8.647817,4.200250
1.513619,0.427246,-0.213623,0.041936,-0.108973,8.589139,4.194262
1.529197,0.419617,-0.144958,0.087712,-0.029938,8.613688,4.213422
1.545115,0.312805,-0.274658,-0.095393,-0.083826,8.631650,4.222404
1.561084,0.312805,-0.259399,0.026677,-0.123344,8.609496,4.190071
1.577128,0.350952,-0.343323,-0.080134,-0.122146,8.630453,4.209830
1.594034,0.381470,-0.320435,-0.034358,-0.122745,8.617879,4.177497
1.610041,0.350952,-0.236511,0.164006,-0.069456,8.624465,4.200849
1.625965,0.236511,-0.129700,0.049565,-0.014370,8.630453,4.177497
1.641869,0.335693,-0.350952,-0.019099,-0.079036,8.613089,4.193663
1.657694,0.274658,-0.213623,-0.003840,-0.038919,8.634645,4.205638
1.673639,0.312805,-0.419617,-0.003840,-0.044308,8.648416,4.208034
1.689583,0.213623,-0.381470,-0.003840,-0.101190,8.615484,4.210428
1.705409,0.411987,-0.221252,0.102971,-0.027543,8.575367,4.190670
1.721324,0.221252,-0.175476,-0.041987,-0.053289,8.645422,4.216416
1.737110,0.411987,-0.389099,0.087712,-0.146096,8.626861,4.225397
1.752737,0.381470,-0.205994,-0.034358,-0.034129,8.647817,4.210428
1.768338,0.442505,-0.320435,0.087712,-0.052092,8.613089,4.177497
1.783955,0.419617,-0.167847,-0.003840,-0.085622,8.604707,4.221805
1.799617,0.213623,-0.144958,0.011418,-0.029938,8.623867,4.211027
1.815264,0.350952,-0.358582,-0.034358,-0.062271,8.726254,4.220607
1.830815,0.282288,-0.297546,-0.049617,-0.061073,8.620872,4.227792
1.846380,0.289917,-0.274658,-0.041987,-0.056882,8.620274,4.222404
1.861940,0.473022,-0.381470,0.003789,-0.072449,8.639434,4.182886
1.877552,0.404358,-0.259399,0.080083,-0.018561,8.611892,4.170911
1.893290,0.221252,-0.259399,-0.003840,-0.079036,8.629255,4.212225
1.909022,0.419617,-0.297546,-0.019099,-0.055684,8.619676,4.212823
1.924858,0.289917,-0.160217,-0.110652,-0.035327,8.622070,4.207435
1.940755,0.259399,-0.282288,-0.103022,-0.085023,8.602910,4.221206
1.956624,0.358582,-0.267029,0.019048,-0.099992,8.624465,4.224200
1.972462,0.366211,-0.328064,-0.080134,-0.144300,8.640632,4.230187
1.988375,0.305176,-0.312805,0.011418,-0.108375,8.601712,4.231984
2.004139,0.259399,-0.251770,-0.011470,-0.067061,8.617280,4.218212
2.019740,0.373840,-0.274658,0.011418,-0.091011,8.633447,4.200250
2.035396,0.427246,-0.274658,-0.095393,-0.071252,8.592133,4.200849
2.051902,0.358582,-0.183105,0.057195,-0.049098,8.665180,4.224200
2.067644,0.274658,-0.167847,0.194524,-0.060474,8.631650,4.223002
2.083287,0.518799,-0.061035,-0.019099,-0.068258,8.596324,4.184083
2.099373,0.312805,-0.289917,0.049565,-0.037123,8.610694,4.221805
2.115314,0.358582,-0.320435,0.057195,-0.089214,8.619077,4.184682
2.131221,0.495911,-0.259399,0.011418,-0.094005,8.631650,4.175701
2.146834,0.267029,-0.122070,-0.003840,-0.055085,8.634645,4.184682
2.162864,0.267029,-0.267029,0.003789,-0.048499,8.645422,4.154744
2.178486,0.259399,-0.267029,-0.072505,-0.115560,8.625663,4.187676
2.194194,0.579834,-0.205994,-0.011470,0.005389,8.604108,4.206836
2.210060,0.289917,-0.259399,0.003789,-0.107177,8.618478,4.230786
2.225944,0.373840,-0.335693,0.026677,-0.052690,8.622669,4.209830
2.241850,0.236511,-0.282288,0.133489,-0.048499,8.625663,4.194861
2.257761,0.328064,-0.335693,0.087712,-0.091011,8.594527,4.207435
2.273754,0.434875,-0.099182,0.034307,-0.037722,8.625663,4.188873
2.289720,0.305176,-0.183105,-0.057246,-0.050295,8.650810,4.198453
2.305596,0.251770,-0.328064,-0.049617,-0.114961,8.620274,4.218811
2.321385,0.305176,-0.312805,-0.011470,-0.053888,8.616681,4.189472
2.337259,0.457764,-0.152588,-0.087764,-0.020956,8.653805,4.182886
2.352924,0.343323,-0.358582,0.118230,-0.104782,8.632249,4.198453
2.368583,0.297546,-0.236511,0.041936,-0.033530,8.620872,4.201447
2.385265,0.427246,-0.289917,0.087712,-0.101190,8.619077,4.173904
2.401112,0.274658,-0.160217,0.072454,-0.005988,8.605305,4.183485
2.416830,0.190735,-0.328064,0.095342,-0.081431,8.644823,4.208632
2.432567,0.289917,-0.236511,0.041936,-0.065863,8.617879,4.220008
2.448425,0.328064,-0.328064,0.019048,-0.016166,8.601712,4.208034
2.464209,0.328064,-0.328064,-0.133540,-0.083826,8.619077,4.240366
2.479910,0.358582,-0.267029,-0.034358,-0.098795,8.635841,4.202046
2.495816,0.434875,-0.289917,-0.011470,-0.008981,8.618478,4.227792
2.511392,0.381470,-0.358582,-0.148799,-0.107177,8.597522,4.212225
2.527218,0.442505,-0.160217,0.141118,-0.078437,8.622070,4.206237
2.543051,0.267029,-0.160217,0.003789,-0.022154,8.623867,4.200849
2.558931,0.419617,-0.320435,-0.080134,-0.105980,8.628057,4.174503
2.574777,0.305176,-0.205994,0.087712,-0.058678,8.634046,4.191268
2.590669,0.488281,-0.312805,-0.072505,-0.056283,8.627460,4.204441
2.606827,0.274658,-0.335693,0.011418,-0.127535,8.627460,4.194262
2.622895,0.419617,-0.312805,-0.080134,-0.037722,8.614286,4.181688
2.638639,0.335693,-0.152588,-0.019099,-0.080233,8.619077,4.193663
2.654460,0.328064,-0.411987,-0.057246,-0.071851,8.605305,4.176898
2.670158,0.450134,-0.320435,-0.057246,-0.022154,8.608898,4.199651
2.685775,0.343323,-0.358582,-0.125911,-0.123942,8.619676,4.205638
2.701509,0.358582,-0.114441,0.003789,-0.061073,8.610694,4.223601
2.717180,0.221252,-0.419617,0.064824,-0.028141,8.638237,4.196657
2.732824,0.335693,-0.312805,-0.072505,-0.086819,8.602311,4.218811
2.748395,0.381470,-0.122070,0.087712,-0.028740,8.641231,4.185281
2.763978,0.312805,-0.091553,0.026677,-0.056283,8.648416,4.215219
2.779554,0.350952,-0.244141,-0.011470,-0.072449,8.629854,4.235576
2.795222,0.358582,-0.053406,0.133489,-0.032333,8.581954,4.205638
2.811088,0.343323,-0.221252,0.026677,-0.032932,8.647817,4.249946
2.826935,0.442505,-0.350952,0.057195,-0.128134,8.632848,4.180490
2.842776,0.320435,-0.274658,0.064824,0.116757,8.623268,4.200250
2.858731,0.350952,-0.289917,-0.003840,-0.096400,8.626861,4.208632
2.874645,0.244141,-0.259399,0.019048,-0.102387,8.604108,4.201447
2.890532,0.305176,-0.335693,0.019048,-0.010179,8.638836,4.199052
2.906430,0.289917,-0.244141,0.003789,-0.040715,8.602311,4.178096
2.922211,0.526428,-0.198364,-0.080134,-0.033530,8.589738,4.195459
2.938061,0.251770,-0.175476,0.019048,-0.043709,8.608299,4.198453
2.953739,0.099182,-0.328064,0.011418,-0.036524,8.618478,4.223002
2.969408,0.358582,-0.205994,-0.011470,-0.051493,8.601712,4.217015
2.985066,0.312805,-0.350952,0.072454,-0.064067,8.631650,4.212823
3.000760,0.228882,-0.305176,0.057195,-0.099393,8.617879,4.222404
3.016381,0.297546,-0.160217,-0.041987,-0.032333,8.628057,4.217614
3.031969,0.404358,-0.297546,-0.110652,-0.082029,8.626861,4.210428
3.047952,0.350952,-0.053406,-0.080134,-0.032333,8.629854,4.239169
3.063815,0.350952,-0.221252,-0.164058,-0.073048,8.609496,4.216416
3.079413,0.205994,-0.144958,-0.049617,-0.082628,8.614885,4.215219
3.095084,0.282288,-0.167847,0.118230,-0.025148,8.616681,4.215817
3.111020,0.305176,-0.366211,0.003789,-0.031135,8.637638,4.212225
3.126854,0.259399,-0.022888,0.148748,-0.099992,8.631650,4.214021
3.143563,0.442505,-0.305176,0.057195,-0.004790,8.624465,4.196058
3.160081,0.450134,-0.328064,-0.019099,-0.038919,8.623867,4.223601
3.175991,0.267029,-0.160217,0.026677,-0.070653,8.604707,4.218212
3.191648,0.259399,-0.282288,0.064824,-0.039518,8.594527,4.237372
3.207363,0.389099,-0.297546,-0.041987,-0.079036,8.610694,4.249348
3.222968,0.335693,-0.175476,0.080083,-0.034129,8.638836,4.188274
3.238892,0.236511,-0.213623,0.011418,-0.083826,8.601712,4.193663
3.254545,0.358582,-0.267029,0.019048,-0.128732,8.660990,4.173904
3.270169,0.396729,-0.221252,0.049565,-0.044907,8.600515,4.203243
3.285747,0.381470,-0.350952,-0.049617,-0.083826,8.631650,4.186478
3.301283,0.381470,-0.221252,0.041936,-0.064067,8.626861,4.190071
3.316916,0.404358,-0.129700,0.072454,-0.038919,8.618478,4.172707
3.332629,0.312805,-0.282288,-0.034358,-0.057480,8.614885,4.202046
3.348242,0.358582,-0.358582,0.041936,-0.050894,8.629854,4.203243
3.363847,0.373840,-0.358582,-0.049617,-0.037123,8.629255,4.198453
3.379493,0.434875,-0.244141,0.026677,-0.120350,8.614286,4.189472
3.395225,0.335693,-0.236511,0.019048,-0.013173,8.601712,4.179293
3.411155,0.267029,-0.190735,-0.011470,-0.072449,8.629854,4.200250
3.426943,0.343323,-0.297546,0.019048,-0.069456,8.629255,4.193065
3.442789,0.465393,-0.366211,-0.019099,-0.023950,8.593330,4.203243
3.458571,0.312805,-0.259399,-0.095393,-0.087418,8.598719,4.199651
3.474408,0.282288,-0.045776,0.034307,-0.100591,8.672366,4.190670
3.490003,0.198364,-0.297546,-0.103022,-0.067061,8.595725,4.208034
3.505704,0.457764,-0.289917,-0.026729,-0.040117,8.628656,4.206237
3.521560,0.259399,-0.366211,0.003789,-0.097597,8.622669,4.194861
3.537129,0.282288,-0.373840,-0.095393,-0.058678,8.613089,4.230786
3.552718,0.312805,-0.213623,0.041936,-0.102986,8.620872,4.193065
3.568303,0.305176,-0.274658,0.118230,-0.074246,8.661588,4.226595
3.583810,0.511169,-0.350952,0.019048,-0.098196,8.608299,4.196058
3.599421,0.213623,-0.167847,0.034307,-0.043110,8.643625,4.183485
3.616191,0.251770,-0.282288,-0.034358,-0.035925,8.617280,4.202645
3.632155,0.282288,-0.198364,-0.049617,-0.083227,8.623268,4.204441
3.647936,0.312805,-0.312805,-0.057246,-0.103585,8.627460,4.199052
3.663587,0.411987,-0.244141,0.011418,-0.037123,8.619676,4.198453
3.679238,0.389099,-0.282288,0.034307,-0.071851,8.614286,4.228391
3.695248,0.160217,-0.328064,0.011418,-0.047900,8.644823,4.200849
3.711009,0.274658,-0.289917,0.057195,-0.020956,8.642428,4.202046
3.726836,0.473022,-0.282288,0.072454,-0.068258,8.617280,4.202046
3.742762,0.190735,-0.228882,-0.041987,-0.084424,8.598120,4.221805
3.758736,0.488281,-0.144958,-0.041987,-0.034728,8.654403,4.214620
3.774649,0.366211,-0.282288,0.133489,-0.064067,8.604707,4.205638
3.790562,0.244141,-0.236511,0.064824,-0.056882,8.601114,4.184083
3.806460,0.442505,-0.236511,0.057195,-0.061073,8.627460,4.179293
3.822405,0.305176,-0.465393,0.019048,-0.041314,8.632249,4.179892
3.838335,0.503540,-0.297546,0.179265,-0.086819,8.640632,4.175102
3.854149,0.259399,-0.328064,-0.003840,-0.006586,8.619676,4.194861
3.871380,-23.651123,-0.213623,-1.689937,-0.268242,15.109579,7.782001
3.887163,35.202026,-8.216858,-6.114985,0.116158,10.293794,9.106447
3.903376,111.740112,10.566711,-10.250117,1.808240,11.161988,9.258531
3.919081,135.101318,-10.116577,-11.005427,-0.494572,11.883488,4.732543
3.934645,138.679504,-1.129150,-7.808711,0.492177,10.739866,4.872053
3.950364,150.756836,0.694275,-8.609797,-0.871787,8.036488,3.224878
3.966266,165.611267,-2.578735,-10.692622,-1.100511,9.328002,4.883429
3.981902,185.813904,-9.452820,-10.150935,-1.508862,6.731801,4.688834
3.997535,202.949524,-3.448486,-8.037593,-0.302371,7.713161,3.813454
4.013195,219.207764,-3.082275,-4.062678,-1.290317,4.233197,2.887180
4.028889,215.858459,-5.371094,0.019048,0.049697,4.567302,-0.704750
4.044749,210.990906,-5.729675,4.360173,-1.962120,-2.992577,-1.924414
4.060546,145.889282,1.647949,6.717656,-1.420845,-3.611091,-0.400583
4.076345,68.923950,-3.768921,11.432622,-1.128054,0.975970,-0.396990
4.092299,67.344666,-0.946045,13.278935,0.277822,6.232440,1.032836
4.108785,138.305664,16.532898,45.909855,-6.570138,19.617605,-19.817604
4.125283,87.120056,-8.262634,12.134526,-0.646057,10.156080,-8.420306
4.140942,121.749878,-8.140564,-12.371089,2.632725,3.986510,-0.432916
4.156754,95.405579,-27.183533,14.499639,1.484912,1.102906,4.216416
4.172622,48.713684,-18.203735,-7.099177,-0.178429,19.617605,-5.497783
4.188514,61.668396,39.588928,-2.826716,5.243895,-1.354982,-4.372723
4.204139,85.166931,18.569946,14.141057,2.026186,10.038724,-2.695610
4.220233,59.936523,12.145996,-2.094295,1.226849,9.587263,-10.111190
4.235888,93.177795,3.364563,-4.932429,-1.595083,5.377418,-4.574503
4.251558,78.437805,-3.890991,-2.895381,0.065863,8.851394,-7.999980
4.267665,76.728821,30.235291,-9.700801,-0.089214,8.518486,-3.797918
4.283697,62.431335,19.165039,-8.571651,1.102308,7.871232,-4.709822
4.299644,75.950623,21.446228,-8.853938,1.360371,8.127499,-5.916313
4.315198,68.740845,6.538391,-10.334041,0.246687,5.925877,-5.207986
4.330751,63.796997,10.360718,-0.980403,0.777783,7.805368,-7.246148
4.346454,62.072754,5.271912,-2.697017,0.099393,6.982679,-5.888171
4.362288,53.810120,-0.709534,0.148748,0.059875,7.455696,-6.715052
4.378281,52.207947,-3.440857,2.483342,-0.301772,7.117399,-6.468964
4.394091,51.803589,-6.744385,0.980352,-0.019160,7.003037,-6.463575
4.409902,50.247192,-8.110046,3.833745,0.469424,6.865324,-6.449205
4.425785,47.370911,-8.811951,3.818486,0.154479,6.816226,-6.599492
4.441732,44.593811,-7.972717,3.093694,-0.110770,6.684500,-6.780915
4.457678,41.297913,-8.232117,2.933476,-0.442480,6.889274,-7.135977
4.473539,38.032532,-6.240845,2.681706,-0.552052,6.514453,-6.576739
4.489481,34.271240,-4.455566,0.667546,-0.397573,6.950346,-6.906653
4.505215,33.569336,-2.487183,0.507329,-0.101190,6.735992,-6.590511
4.520921,31.738281,-0.015259,-0.286128,-0.180824,6.674321,-6.846179
4.536613,32.073975,1.953125,-2.048518,-0.041913,6.685697,-6.661164
4.552332,31.127930,3.387451,-2.063777,-0.029938,6.676716,-6.660565
4.567974,30.479431,4.409790,-3.215816,-0.365839,6.633007,-6.910246
4.583588,30.639648,6.057739,-3.810908,-0.237706,6.620433,-6.996467
4.599150,30.647278,5.447388,-3.032710,-0.176034,6.507268,-7.080891
4.614775,30.883789,5.554199,-2.941157,-0.070054,6.488707,-6.950363
4.630448,31.959534,4.364014,-2.574946,0.167651,6.521638,-6.944375
4.646203,35.011292,2.807617,-0.919368,0.070653,6.318061,-8.422701
4.662050,26.573181,5.210876,-2.086665,1.391506,7.986193,-9.181323
4.677774,21.148682,-2.197266,2.109502,0.131127,5.382806,-8.062849
4.693551,22.247314,3.547668,1.705144,0.129331,6.043233,-7.620968
4.709402,23.597717,-4.997253,-0.232722,-0.205972,6.052214,-8.126317
4.725284,22.331238,-2.777100,2.910588,-0.067659,5.539680,-7.822150
4.741153,17.898560,-4.608154,1.689885,-0.160466,5.580994,-8.501737
4.757011,12.748718,-2.593994,2.124761,0.011975,5.142706,-7.976030
4.772892,7.080078,-4.211426,2.864812,-0.370031,5.219945,-8.325104
4.788512,3.372192,-2.647400,1.399968,-0.010179,5.299580,-8.204155
4.804192,-0.610352,-2.571106,1.300786,-0.068857,5.391189,-8.111947
4.820824,0.617981,-1.358032,-2.368953,0.112566,2.156116,-7.574265
4.836543,-20.133972,-7.843018,7.541631,-2.071093,-1.677711,-11.373963
4.852511,-122.116089,1.365662,0.713323,-1.393303,-2.677033,-6.855161
4.868427,-169.403076,-2.777100,-3.131892,-1.232836,11.324251,-12.781636
4.884278,-135.025024,-6.675720,2.384160,-0.668210,8.755592,-5.391804
4.899927,-131.904602,-0.518799,5.321477,0.767005,5.852829,-4.973274
4.915712,-109.466553,-3.196716,2.834294,-0.541873,9.153166,-8.119132
4.931341,-97.740173,-2.708435,3.314946,1.203497,8.235274,-7.754490
4.946979,-79.856873,-7.957458,2.521489,0.334105,7.718549,-7.976628
4.962832,-55.313110,-3.089905,5.939458,0.001198,9.359736,-6.086958
4.978752,-16.151428,0.518799,1.209233,0.328716,6.781498,-3.703315
4.994636,-3.608704,-4.951477,3.955815,0.317340,12.557087,-3.569194
5.010453,38.795471,-8.735657,-0.507380,0.095801,9.824370,0.827463
5.026441,84.197998,-4.371643,0.469182,-0.823887,12.824132,-0.852044
5.042453,85.388184,-3.311157,2.193425,-0.484991,8.820258,-0.850248
5.058571,83.435059,-3.166199,-0.125911,-0.384401,6.686296,-3.081807
5.075052,41.252136,-5.363464,0.087712,-0.850831,6.806047,-3.635655
5.090932,11.703491,-2.822876,0.659917,-0.267045,6.313272,-4.858313
5.106720,-15.747070,-4.608154,1.239751,-0.650847,5.654641,-4.375717
5.122396,-29.449463,-4.592896,0.873540,-0.118553,7.467072,-5.906733
5.138923,-35.552979,-4.592896,-0.484492,-0.610730,8.102351,-6.412681
5.154684,-30.868530,0.144958,-1.857783,-0.532892,7.965835,-5.991157
5.170404,-13.908386,1.052856,0.835393,-0.437690,8.508307,-6.753372
5.186141,-4.776001,2.792358,-2.109553,-0.223934,8.201744,-6.972517
5.201761,17.509460,3.028870,-2.437617,-0.312550,8.633447,-6.718046
5.217325,35.415649,3.936768,-2.475764,-0.169448,8.657995,-6.080372
5.232939,52.902222,6.256104,-2.506282,-0.205972,8.192763,-6.354002
5.248532,67.642212,5.165100,-3.398921,-0.362247,7.755073,-5.940263
5.264168,71.731567,5.729675,-3.269221,0.002395,7.580237,-5.461858
5.280019,73.486328,2.243042,-3.635432,-0.011975,7.264094,-4.730179
5.295855,70.793152,1.258850,-3.879573,0.021555,7.161108,-4.458943
5.311636,66.841125,1.014709,-2.468135,0.146695,7.115603,-4.336199
5.327412,61.042786,6.523132,2.765630,-1.283132,8.644823,-5.018180
5.343247,47.103882,2.944946,-0.041987,2.546504,6.291716,-5.428926
5.359227,52.612305,-0.961304,-7.869746,1.917213,7.823331,-6.965332
5.375222,55.847168,-1.449585,-3.833797,-1.623224,7.131171,-8.032312
5.391801,71.434021,2.426147,1.918767,-0.332309,6.383326,-6.896475
5.407592,88.088989,0.091553,-1.735713,-0.137714,6.365363,-8.290975
5.423459,97.152710,-2.532959,-1.789119,-0.195793,5.385201,-8.261636
5.439213,102.218628,-3.143311,1.773809,-0.083227,5.119953,-8.298759
5.454844,101.280212,-0.961304,0.682805,0.704136,5.561235,-7.752095
5.470493,99.975586,-3.074646,0.133489,-0.614921,5.611531,-7.851489
5.486168,96.679688,-2.830505,0.759099,-0.610131,5.047503,-7.720960
5.502037,93.574524,-1.251221,0.026677,-0.084424,4.885241,-6.885697
5.517597,95.520020,-2.449036,-2.346065,0.094603,4.671485,-8.476589
5.533168,92.658997,-0.297546,-2.895381,0.769400,4.339177,-7.568277
5.548752,96.435547,1.289368,-3.932979,0.380209,3.733237,-10.165676
5.564482,97.488403,3.204346,-2.971675,-0.957409,3.323090,-9.163361
5.580211,101.837158,1.670837,-2.590205,-0.047900,3.091372,-10.321353
5.596069,106.498718,3.128052,-7.274653,-0.793949,2.912942,-9.695654
5.611942,118.850708,3.601074,-2.986934,-0.373024,2.190245,-9.345981
5.627766,122.459412,3.913879,-5.085017,0.453856,2.987188,-8.807700
5.643967,123.146057,3.662109,-6.626155,-0.422122,2.437531,-9.360351
5.659859,126.724243,2.563477,-4.535701,0.054487,1.332828,-9.408850
5.675758,123.245239,1.449585,-5.092647,-0.114362,1.053809,-8.788540
5.691512,119.651794,-0.114441,-3.696467,0.725691,0.343685,-9.065763
5.707362,120.758057,0.068665,-5.527522,0.441881,0.326321,-10.315365
5.722983,121.353149,1.228333,-1.926448,-0.669408,0.373623,-11.322471
5.738648,126.960754,-3.593445,-2.132442,0.222138,-0.636476,-10.259681
5.754388,131.256104,1.541138,-4.810359,0.316143,-0.964594,-9.978266
5.770544,134.803772,1.075745,-1.766230,-0.884960,-1.279539,-9.364542
5.786243,139.343262,-0.701904,-1.010920,-0.208965,-1.820814,-9.040017
5.801817,140.953064,-1.731873,-4.581477,-0.126936,-2.190844,-10.428530
5.817570,139.877319,-0.457764,-3.574397,-0.403561,-3.039280,-9.939347
5.833459,135.482788,-1.174927,-0.629451,0.465233,-3.176993,-8.913680
5.849326,132.675171,-1.556396,-5.214717,0.066462,-5.445077,-8.731060
5.864993,136.154175,-1.647949,-1.995112,-0.166454,-3.977529,-9.379511
5.880923,139.160156,-0.839233,-0.087764,-0.130529,-4.474495,-8.095181
5.896745,141.548157,-1.075745,0.614141,-0.128732,-5.214556,-8.596938
5.912504,146.301270,-2.098083,2.170537,0.571212,-5.503755,-8.683758
5.928273,145.011902,0.343323,0.469182,0.119751,-6.092331,-7.449125
5.944070,144.889832,-2.853394,1.773809,0.109572,-7.282057,-7.990400
5.959972,142.875671,-1.296997,1.209233,-0.083227,-6.653364,-7.181482
5.975784,140.869141,-0.259399,1.049016,0.049697,-6.501280,-6.654578
5.992500,137.939453,-0.633240,2.284978,0.131726,-6.843768,-7.143760
6.008920,140.563965,1.068115,0.896428,-0.246088,-7.821535,-7.404219
6.024538,142.898560,0.877380,-0.690486,-1.220861,-6.906638,-6.151624
6.040304,142.906189,-2.388000,0.308965,-0.387394,-8.369396,-5.582807
6.056120,141.151428,1.129150,-2.468135,-0.171244,-8.265811,-4.615817
6.071866,132.812500,-2.243042,-2.162959,-0.389789,-8.054451,-4.852924
6.087464,134.483337,-5.905151,-29.850031,1.074166,-5.043911,-2.487244
6.103452,121.742249,-12.573242,-31.833673,1.556164,-11.770923,-1.036461
6.119075,116.004944,0.183105,-42.125729,3.238066,-18.803898,-13.503735
6.134685,87.631226,-13.435364,-23.342157,1.037642,-8.974138,-2.645315
6.150274,65.345764,0.381470,5.313848,-0.519120,-5.471422,0.455637
6.165915,62.744141,6.126404,15.148137,0.044308,-8.541239,-1.468762
6.181555,19.523621,5.180359,12.927983,-1.538201,-12.602592,-0.656850
6.197335,-29.968262,-2.166748,1.575444,0.108973,-10.687176,1.131631
6.213143,-52.513123,-15.747070,-14.484431,-0.201182,-8.032895,0.718490
6.228908,-67.756653,-12.657166,-16.788507,0.099393,-8.968151,0.290380
6.244729,-89.485168,-18.173218,6.679509,-0.777184,-19.602636,3.381752
6.260629,-82.496643,-5.813599,7.251714,5.134323,-5.919889,-5.020576
6.276532,-88.874817,-4.707336,-3.154780,6.915619,-9.239387,-8.696332
6.292417,-86.418152,-24.383545,-33.824947,0.188009,-7.325766,-8.710702
6.308133,-77.552795,-37.025452,-20.664240,-6.348598,-6.263575,-10.704556
6.323955,-82.031250,-10.375977,10.059331,-1.615441,-9.728569,-5.492993
6.339619,-55.664062,0.244141,16.178106,4.252357,-10.784174,-6.918030
6.355270,-51.406860,15.876770,23.303961,-1.074166,-7.438931,-5.501975
6.370954,-56.808472,11.047363,21.533941,0.182021,-9.133407,-5.349292
6.386622,-52.444458,-0.801086,11.402104,-0.274828,-7.625742,-5.314564
6.402214,-55.519104,0.694275,8.457158,-1.493295,-7.932903,-6.026484
6.417751,-56.747437,4.859924,6.977056,-0.449665,-7.436536,-5.805543
6.433366,-61.843872,-0.076294,1.308416,0.363444,-7.662865,-6.220480
6.449008,-60.073853,-1.739502,-5.466487,0.188608,-7.779024,-6.512673
6.464677,-56.533813,-2.098083,-5.962398,-0.117955,-7.823930,-6.821032
6.480507,-51.963806,-1.541138,-2.773311,-0.382006,-7.465875,-6.915635
6.496288,-49.858093,0.061035,-2.346065,0.769999,-7.177275,-6.702478
6.512042,-48.385620,-1.708984,-3.986384,-0.076042,-7.115603,-7.062330
6.527820,-48.980713,-1.350403,-2.155330,0.123344,-6.724017,-7.052151
6.543648,-50.354004,-1.747131,0.598882,0.216749,-6.827602,-7.022812
6.559465,-49.987793,1.403809,0.896428,-0.091610,-6.722221,-7.248542
6.575172,-49.568176,-0.915527,-0.438716,-0.096998,-6.858139,-7.531754
6.590989,-47.508240,-1.609802,-0.385310,-0.408351,-6.471343,-7.609591
6.606607,-44.395447,-0.343323,-0.721003,0.498164,-6.315068,-7.612586
6.622291,-43.693542,0.053406,-0.858333,-0.776585,-6.191724,-7.546124
6.637992,-42.266846,-0.381470,1.552556,-0.237107,-6.046227,-7.955672
6.653729,-40.512085,-0.808716,1.880620,0.231718,-5.954618,-8.067639
6.669897,-40.534973,0.366211,0.797246,0.011376,-5.950426,-8.014350
6.686069,-40.443420,-0.953674,-0.759150,-0.612526,-5.907915,-8.302950
6.701639,-38.032532,-0.633240,1.155828,0.091610,-5.940846,-8.341869
6.717183,-35.865784,0.267029,0.263188,-0.020358,-5.765411,-8.215531
6.732794,-35.758972,0.625610,-0.804927,-0.467628,-4.767286,-8.565804
6.748319,-33.576965,-0.686646,-0.164058,-0.056882,-5.319338,-8.476589
6.764159,-31.425476,-0.015259,-0.011470,-0.088616,-5.339696,-8.441262
6.779973,-30.517578,-0.221252,0.179265,0.044907,-5.356461,-8.420904
6.795738,-29.029846,-0.099182,-0.141169,0.079036,-5.081034,-8.418509
6.811539,-27.679443,-0.389099,0.003789,0.038320,-4.928351,-8.470002
6.827442,-26.176453,-0.366211,0.507329,-0.153880,-4.994813,-8.511915
6.843368,-25.100708,-0.419617,-0.041987,0.025148,-4.917574,-8.552630
6.859121,-23.490906,-0.297546,-0.316646,-0.179626,-4.848118,-8.581371
6.874879,-22.003174,-0.106812,0.316594,-0.033530,-4.740343,-8.473595
6.890498,-20.988464,-0.350952,-0.141169,-0.152682,-4.706812,-8.576581
6.906182,-19.935608,0.350952,-0.141169,0.041314,-4.744534,-8.460423
6.921998,-18.318176,-0.694275,0.263188,0.020956,-4.643344,-8.922062
6.937708,-16.311646,-0.030518,-0.423457,0.096998,-4.582271,-8.874761
6.953332,-14.404297,-0.427246,-0.827815,-0.119751,-4.526587,-8.677771
6.968996,-12.306213,0.083923,0.011418,-0.040715,-4.443959,-8.651425
6.986386,-10.375977,-0.305176,-0.026729,0.058079,-4.451144,-8.869372
7.002836,-8.903503,-0.152588,0.034307,-0.085622,-4.464915,-8.802910
7.018416,-7.598877,-0.389099,0.492070,-0.029339,-4.412225,-8.812490
7.034318,-6.309509,-0.282288,0.537847,-0.010179,-4.336782,-8.820274
7.050140,-5.088806,-0.175476,0.446294,-0.094603,-4.302652,-8.842428
7.065786,-3.562927,-0.236511,0.705693,-0.101788,-3.764971,-8.859193
7.081416,-1.914978,-0.129700,0.499700,-0.105381,-4.431385,-8.898711
7.097177,0.083923,-0.297546,0.087712,-0.086819,-4.311035,-8.999302
7.112946,1.914978,-0.205994,0.125859,-0.030536,-4.392466,-8.962179
7.128728,3.662109,-0.320435,-0.064875,-0.037722,-4.349356,-8.907093
7.144666,5.302429,-0.236511,-0.103022,-0.062869,-4.339177,-8.806502
7.161279,6.416321,-0.343323,-0.034358,-0.090412,-4.373904,-8.811293
7.177321,7.713318,-0.251770,0.133489,-0.016166,-4.395460,-8.815484
7.193255,8.995056,-0.213623,0.247930,-0.028740,-4.417614,-8.810095
7.210014,10.108948,-0.244141,0.347112,-0.023351,-4.473897,-8.788540
7.225924,11.413574,-0.442505,0.209783,-0.033530,-4.542154,-8.825064
7.241702,13.359070,-0.167847,0.156377,-0.053888,-4.575086,-8.798718
7.257430,15.022278,-0.389099,0.095342,-0.060474,-4.450545,-8.763392
7.273327,16.639709,-0.259399,-0.156428,-0.004191,-4.640949,-8.701720
7.289346,18.188477,-0.152588,-0.278499,-0.014969,-4.676276,-8.665795
7.305122,19.241333,-0.450134,0.202153,-0.016765,-4.803212,-8.686751
7.320781,20.385742,-0.259399,0.476812,0.047900,-4.910987,-8.605321
7.336502,21.369934,-0.259399,0.568364,-0.062271,-4.900809,-8.546044
7.352100,22.499084,-0.350952,0.667546,-0.113763,-4.971462,-8.582568
7.367671,23.620605,-0.167847,0.690435,-0.097597,-5.063670,-8.545445
7.383308,24.688721,-0.312805,0.537847,0.046703,-5.152286,-8.483175
7.398896,25.802612,-0.083923,0.148748,-0.116757,-5.199587,-8.446651
7.414963,26.901245,-0.556946,0.682805,0.148491,-5.297184,-8.436472
7.431010,27.854919,-0.328064,0.316594,0.083826,-5.320536,-8.346659
7.446812,28.923035,-0.305176,-0.225093,-0.121547,-5.406756,-8.353844
7.462401,29.800415,-0.381470,-0.026729,-0.142504,-5.536686,-8.280197
7.478093,30.693054,-0.633240,0.637029,-0.047900,-5.615123,-8.187390
7.494039,31.173706,-0.274658,-0.011470,0.171843,-5.753436,-8.090392
7.509692,32.730103,-0.534058,0.125859,-0.162263,-5.726492,-8.115540
7.525286,33.767700,0.175476,0.957463,-0.049098,-5.716313,-7.998184
7.541030,33.836365,-0.503540,0.560735,0.081431,-5.948031,-7.911963
7.556626,34.385681,-0.473022,0.644658,0.057480,-5.985154,-7.951481
7.572247,35.102844,-0.877380,1.041387,0.148491,-6.064189,-7.824545
7.587859,35.270691,0.122070,0.583623,-0.040715,-6.189329,-7.600610
7.603393,35.957336,-0.465393,1.186345,-0.293390,-6.365363,-7.610190
7.618968,36.918640,0.411987,2.017949,-0.060474,-6.555767,-7.685035
7.634634,37.254333,-0.526428,1.018499,0.268242,-6.720425,-7.478464
7.650233,36.857605,-0.205994,-0.667598,-0.135319,-6.717431,-7.335961
7.665942,37.239075,-0.976562,0.225042,-0.358654,-6.701265,-7.320393
7.682320,36.979675,1.930237,1.193975,0.156874,-7.001840,-7.808378
7.698436,12.969971,3.555298,-1.026179,-0.358055,-10.519525,-8.231698
7.714340,72.883606,4.096985,1.720403,-0.822689,-10.731483,-8.758602
7.730069,111.640930,-0.915527,1.193975,0.204774,-8.552615,-8.293968
7.746152,114.891052,-3.723145,-3.314998,0.066462,-8.402926,-8.700523
7.762096,121.734619,-1.373291,0.690435,-0.125739,-8.617280,-8.555026
7.778021,135.467529,0.244141,1.827214,0.226928,-8.474178,-7.494631
7.793585,148.216248,3.280640,3.231023,0.108973,-7.820337,-6.652781
7.809229,154.487610,-2.616882,2.780889,-1.066981,-7.389833,-5.472635
7.825135,161.178589,-0.617981,5.001042,-0.222138,-8.164621,-6.024687
7.840860,174.591064,-1.129150,5.748723,0.267045,-7.998766,-5.125358
7.856560,182.861328,2.502441,2.719853,-0.798140,-7.099437,-3.928447
7.872375,190.277100,0.015259,7.778142,-0.302970,-7.877219,-4.164955
7.888188,209.968567,1.213074,6.755803,-0.488584,-7.438332,-3.212934
7.903852,213.882446,1.319885,9.220098,0.317340,-5.840255,-2.669265
7.919462,193.313599,1.754761,8.098577,-0.219743,-4.073928,-2.568674
7.935593,181.282043,1.190186,2.979253,1.026865,-3.764971,0.429890
7.951584,160.499573,-9.857178,-0.835444,1.842369,-0.494572,-1.584920
7.967344,115.226746,3.990173,-6.443049,0.731678,-3.829037,-1.733411
7.982963,90.812683,7.743835,-3.681209,-0.540077,-6.792874,-2.741714
7.998588,87.097168,10.177612,-1.781489,-2.013613,-6.478528,-0.500575
8.014719,101.318359,9.475708,-6.366755,0.738265,-10.355466,-2.899786
8.030494,136.901855,4.142761,10.677312,-0.030536,-11.150612,1.260962
8.046653,228.179932,-2.761841,-25.753046,0.010179,-19.617605,18.344637
8.062720,165.878296,10.734558,-7.724788,-0.455652,-0.940644,5.307946
8.078514,181.610107,-14.350891,13.256047,4.191883,0.346080,4.431369
8.094498,132.255554,2.441406,-30.254389,3.269800,-2.705773,1.085527
8.110104,101.432800,-14.869690,8.640264,-5.081633,-9.017847,19.417604
8.125704,144.950867,-9.094238,14.781926,-3.103347,-10.979967,1.013077
8.141312,100.677490,6.675720,0.255559,6.335425,-1.614842,3.421269
8.156967,89.996338,-19.615173,-4.909541,-1.033451,-12.427157,6.583893
8.172884,100.250244,-6.340027,11.424993,-1.216071,-6.142626,3.114108
8.188658,96.557617,-21.316528,12.027715,0.519719,-6.519842,6.273738
8.205044,87.829590,-21.392822,4.825566,-0.309556,-8.359816,8.912451
8.220671,91.865540,-16.403198,6.916020,0.023950,-6.152805,8.403509
8.236262,98.556519,-5.859375,4.108403,1.221460,-7.604187,5.551041
8.251829,82.847595,-6.164551,0.987981,-0.395178,-8.088580,7.146124
8.267388,72.494507,-5.729675,4.840825,0.150886,-6.468349,5.677378
8.282973,63.262939,0.205994,1.056646,-0.431702,-7.384444,7.284436
8.298718,63.705444,2.334595,0.995610,-0.234113,-7.129973,6.979071
8.314540,63.529968,0.717163,0.507329,0.056882,-7.207811,7.001824
8.330336,61.523438,4.936218,-0.675227,0.138312,-6.925199,6.758729
8.346228,57.785034,5.989075,-1.186396,-0.165256,-6.974297,7.236536
8.362152,54.931641,4.959106,-0.965144,-0.054487,-6.748566,6.936560
8.378091,51.048279,5.798340,-0.553157,0.073647,-6.771319,7.197617
8.394044,49.324036,6.141663,-0.392939,-0.037722,-6.862928,7.211388
8.409895,48.713684,4.623413,0.118230,0.026944,-6.807244,7.320960
8.426010,38.200378,-13.458252,-4.055049,-2.108216,-7.220984,9.723165
8.441690,33.470154,-1.953125,-3.505733,-2.266886,-4.685856,9.286074
8.457367,27.381897,3.471375,-3.185298,-0.976569,-5.652246,8.377164
8.473100,27.961731,-0.518799,-1.056697,0.045505,-6.133645,8.332856
8.488793,26.473999,3.242493,-1.377131,-0.318538,-5.946834,8.374170
8.504408,24.948120,0.808716,-0.835444,-0.165855,-5.861212,8.381954
8.519954,22.445679,0.885010,0.286077,0.209564,-5.580994,8.475958
8.535590,16.517639,-0.656128,0.667546,-0.029339,-5.622907,8.452008
8.551236,11.688232,-1.480103,1.338933,0.075443,-5.432503,8.335850
8.566878,2.304077,-1.266479,1.804326,-0.060474,-5.507946,8.608283
8.582707,-1.594543,-2.059937,0.904058,-0.209564,-5.538483,8.346627
8.598538,-6.324768,-1.579285,0.667546,-0.304766,-5.522316,8.425663
8.614339,-9.643555,-1.419067,-0.301387,-0.347877,-5.728288,8.307110
8.631017,-13.427734,-0.587463,-0.515010,-0.313748,-5.779781,8.296331
8.647153,-14.724731,-0.183105,0.476812,-0.369432,-4.777465,5.432487
8.662783,-34.179688,7.781982,-0.698115,2.404001,-1.495091,9.611796
8.678531,-128.707886,-12.718201,1.262639,0.640668,-4.559518,8.078983
8.694479,-185.264587,6.233215,11.608098,-1.207090,-9.108259,9.876446
8.710184,-177.360535,7.034302,-3.063228,-0.231119,-12.749887,6.894048
8.725841,-168.731689,-10.726929,-9.311702,-0.031734,-5.910309,6.855129
8.741535,-153.228760,6.996155,-3.948237,0.346080,-8.923842,8.206518
8.757108,-149.627686,2.006531,-2.002742,-0.060474,-7.607181,7.588005
8.772705,-125.854492,9.880066,-6.176021,0.074844,-8.552615,6.922788
8.788365,-106.864929,7.934570,-10.669734,-1.651965,-8.696316,7.492204
8.803973,-75.920105,21.850586,0.667546,-0.046104,-13.624068,5.800123
8.819584,-50.308228,16.990662,-9.830501,2.076482,-6.419850,4.196058
8.835159,32.890320,21.232605,0.972722,0.266446,-9.351354,0.331096
8.850850,65.910339,27.732849,0.072454,0.352667,-9.868678,0.262239
8.866518,68.290710,19.485474,-2.887752,0.499362,-8.438252,0.664602
8.883040,50.468445,12.016296,-10.189082,-1.139431,-8.726852,-0.970598
8.898816,9.796143,12.016296,-7.259395,0.874781,-9.339977,1.907018
8.914403,-16.609192,8.270264,-4.009273,-0.519120,-9.320218,2.858440
8.930052,-46.409607,13.526917,-1.667048,0.629291,-7.986792,3.808664
8.945996,-60.180664,4.020691,-3.856685,0.314945,-9.251362,3.897878
8.961730,-79.971313,6.187439,-2.948787,0.223336,-9.767488,5.404944
8.977376,-75.805664,-2.418518,-2.742793,-0.028141,-9.099277,5.489369
8.992998,-67.970276,-3.669739,-0.385310,0.105980,-9.699829,6.360557
9.008608,-54.039001,-5.905151,1.453374,-0.308359,-9.487870,6.205480
9.024218,-35.713196,-5.996704,2.124761,-0.073048,-8.957972,5.742043
9.039839,-20.431519,-8.300781,1.270269,0.030536,-9.284892,5.450450
9.055440,-8.155823,-8.384705,0.087712,-0.326920,-9.598041,4.660692
9.071036,-0.694275,-7.888794,-0.202205,-0.313149,-9.457932,3.861953
9.086662,0.511169,-6.538391,1.026128,-0.326321,-9.264534,3.178175
9.102259,-5.142212,-5.767822,0.575994,-0.495170,-9.111852,2.643487
9.117948,-12.107849,-4.714966,1.010869,-0.359253,-9.356144,2.317764
9.133557,-24.993896,-3.990173,0.270818,-0.428110,-9.369316,2.170470
9.149364,-34.881592,-3.341675,-0.415828,-0.389789,-9.396260,2.258487
9.165154,-38.169861,-2.510071,-0.850703,-0.283211,-9.602831,2.653666
9.181033,-36.651611,-1.373291,-0.637080,-0.219144,-9.704619,3.134466
9.196887,-31.448364,0.068665,-0.606562,-0.166454,-9.508227,3.451207
9.212877,-25.382996,1.136780,-0.385310,-0.041913,-9.891431,3.900872
9.228987,-19.088745,1.884460,-0.545527,-0.014370,-9.577085,3.840997
9.245132,-13.328552,1.182556,-1.964595,-0.031135,-9.678873,3.733221
9.261181,-9.826660,0.373840,-1.499202,0.055085,-9.626781,3.479349
9.277124,-10.910034,-0.205994,0.385259,-0.014370,-9.616602,3.172188
9.292768,-12.550354,-1.838684,1.186345,-0.034129,-9.760902,2.740485
9.308434,-15.769958,-3.959656,0.110601,-0.064067,-9.687854,2.363270
9.324123,-18.585205,-4.684448,-0.972773,-0.129331,-9.867480,2.353690
9.339728,-19.271851,-4.974365,-1.026179,-0.083826,-9.698032,2.014195
9.355262,-20.530701,-2.525330,1.399968,-0.104183,-9.792636,2.074071
9.370825,-21.675110,-1.365662,0.110601,-0.083826,-9.756711,2.177656
9.386383,-22.216797,0.617981,-1.110103,-0.135319,-9.770482,2.430330
9.402043,-21.720886,2.120972,-1.384761,-0.111967,-9.783655,2.603370
9.417660,-20.690918,4.142761,-0.919368,-0.137714,-9.792037,2.650073
9.433466,-18.928528,4.798889,-0.843074,-0.115560,-9.909393,2.801558
9.449362,-15.830994,3.547668,-0.774409,-0.101788,-9.817185,2.484218
9.465151,-13.984680,3.173828,-0.110652,0.014969,-9.875863,2.528526
9.480952,-11.611938,0.686646,-0.377681,-0.013771,-9.793235,2.312376
9.496787,-11.489868,-0.549316,0.202153,0.141905,-9.820778,2.120175
9.512629,-12.832642,-1.876831,-0.110652,-0.041913,-9.859696,1.906420
9.528534,-17.311096,-1.663208,0.057195,-0.139510,-9.757310,1.850137
9.544389,-16.731262,-1.495361,-0.858333,-0.212558,-9.837543,1.756132
9.560291,-17.868042,-0.190735,-0.766780,-0.227527,-9.829160,1.696855
9.576374,-18.638611,0.991821,-0.865962,-0.185614,-9.948313,1.781879
9.592876,-18.196106,1.922607,-0.537898,-0.214354,-9.903406,1.827384
9.608655,-16.967773,1.884460,-0.759150,-0.178429,-9.901011,1.853729
9.624634,-16.105652,1.525879,-0.698115,-0.120350,-9.949510,1.875284
9.640333,-15.174866,1.266479,-0.278499,-0.038320,-9.936936,1.810020
9.655981,-14.465332,0.617981,-0.049617,-0.057480,-9.970467,1.776490
9.671999,-13.580322,-0.686646,-0.469233,-0.069456,-10.116563,1.674702
9.689996,-13.587952,-1.426697,-0.598933,-0.090412,-9.969868,1.578901
9.706295,-13.832092,-1.884460,-0.591304,-0.111967,-9.970467,1.522019
9.722053,-14.686584,-1.670837,-0.926997,-0.101788,-9.887838,1.436397
9.737811,-15.296936,-1.792908,-0.988032,-0.097597,-9.934541,1.388497
9.753423,-15.716553,-0.907898,-0.370051,-0.148491,-9.973460,1.316646
9.768985,-16.036987,-0.068665,-0.606562,-0.118553,-9.998608,1.245993
9.784630,-16.204834,0.167847,-0.621821,-0.108973,-9.999207,1.280721
9.800349,-15.899658,0.213623,-0.560786,-0.023950,-10.009385,1.254974
9.816224,-16.052246,-0.083923,-0.324275,-0.061672,-10.050699,1.201086
9.832230,-16.685486,-0.518799,0.003789,-0.023950,-9.993817,1.183124
9.848255,-16.929626,-0.946045,-0.507380,-0.028740,-10.042915,1.201685
9.864284,-16.883850,-1.197815,-0.576045,-0.056283,-10.070458,1.128038
9.880172,-16.250610,-1.068115,-0.492122,-0.035327,-10.070458,1.033435
9.896151,-15.609741,-0.732422,-0.209834,-0.079036,-10.037527,0.966375
9.911863,-15.380859,-0.244141,-0.400569,-0.023351,-10.042316,0.868777
9.927661,-15.907288,-0.007629,-0.461604,-0.043110,-10.111773,0.811896
9.943604,-16.296387,0.373840,-0.446345,-0.056283,-10.047706,0.595146
9.959412,-16.891479,0.747681,-0.484492,-0.053289,-10.070458,0.604128
9.975161,-17.143250,1.014709,-0.232722,-0.062271,-10.037527,0.593949
9.990884,-17.250061,0.839233,-0.247981,-0.073647,-10.056088,0.561616
10.006657,-17.326355,0.747681,-0.225093,-0.071851,-10.074650,0.503537
10.022220,-17.807007,0.381470,-0.461604,-0.056283,-10.082434,0.505333
10.037804,-17.906189,0.114441,-0.515010,-0.025746,-10.075848,0.463420
10.053351,-17.974854,0.190735,-0.560786,-0.079036,-10.093810,0.407137
10.069037,-17.768860,0.083923,-0.492122,-0.078437,-10.117760,0.342472
10.084637,-17.471313,0.099182,-0.507380,-0.070653,-10.097403,0.269424
10.100455,-16.914368,0.061035,-0.522639,-0.149689,-10.084828,0.256251
10.116271,-16.609192,0.106812,-0.675227,-0.176034,-10.075848,0.194579
10.132033,-16.654968,0.289917,-0.843074,-0.152084,-10.068662,0.174821
10.147833,-16.777039,0.595093,-0.705745,-0.083826,-10.027946,0.110754
10.163611,-17.143250,0.656128,-0.934626,-0.170046,-10.150093,0.100575
10.179412,-17.852783,0.900269,-0.980403,-0.216749,-10.097403,0.118538
10.195561,-18.013000,0.862122,-1.178767,-0.077838,-10.087822,0.088001
10.211445,-18.310547,0.358582,-1.216914,-0.041913,-10.103390,-0.051509
10.227185,-19.470215,-0.083923,-1.338984,-0.022154,-10.121951,-0.037139
10.242808,-20.889282,-0.503540,-1.590754,-0.022154,-10.084229,-0.064083
10.258423,-22.682190,-0.968933,-1.644160,-0.086221,-10.045311,-0.107792
10.274012,-24.841309,-1.350403,-1.911189,-0.092807,-10.105186,-0.108989
10.289696,-26.687622,-1.647949,-2.025630,-0.110770,-10.003997,-0.089230
10.305260,-28.739929,-1.663208,-2.086665,-0.066462,-9.983040,-0.116174
10.320839,-30.448914,-1.968384,-2.178218,-0.056882,-10.120754,-0.144915
10.336422,-32.936096,-1.907349,-2.246882,-0.085023,-10.085427,-0.111983
10.351973,-36.804199,-1.846313,-2.460505,-0.097597,-10.098599,-0.120366
10.367584,-38.169861,-1.831055,-2.704646,-0.053888,-9.956097,-0.047318
10.383349,-41.786194,-1.731873,-2.849605,-0.008981,-9.898017,-0.149106
10.399118,-44.487000,-1.617432,-3.025081,0.067061,-10.087822,-0.268258
10.414932,-48.225403,-2.014160,-3.276851,-0.014370,-10.096205,-0.376034
10.430991,-53.398132,-2.380371,-3.971126,-0.105381,-9.626781,-0.274844
10.447207,-57.678223,-2.403259,-4.520442,-0.001796,-9.611813,-0.331726
10.463212,-62.278748,-2.014160,-4.764583,-0.140109,-9.795630,-0.220358
10.479100,-66.825867,-1.815796,-5.023982,0.029938,-9.656719,-0.323344
10.494717,-71.296692,-2.410889,-5.374934,0.006586,-9.350156,-0.436508
10.510448,-78.384399,-2.738953,-5.611445,0.120948,-9.177715,-0.419743
10.526122,-87.715149,-3.929138,-6.023433,0.165256,-8.916657,-0.496982
10.541722,-95.146179,-5.027771,-6.526973,0.144300,-8.860973,-0.520933
10.557329,-103.042603,-6.187439,-7.198359,0.116757,-8.375383,-0.598771
10.572980,-110.939026,-7.141113,-7.274653,0.108973,-7.911348,-0.464051
10.588647,-122.116089,-8.346558,-4.505183,-1.345402,-17.327967,-19.817604
10.604223,-174.293518,-28.289795,5.260442,15.653249,-19.617605,-18.231503
10.619816,-185.943604,0.312805,-40.363338,-3.969146,-6.907236,9.771664
10.635453,-200.393677,-45.249939,-4.993464,-0.993933,-9.092691,-8.514909
10.651086,-178.199768,-15.007019,2.544377,-7.323970,-2.469864,-8.123922
10.666880,-165.786743,-13.504028,24.211859,0.854423,-9.232800,-11.033272
10.682620,-146.995544,12.153625,15.293096,1.380729,-4.658313,-10.041135
10.698796,-146.644592,2.388000,16.796087,-2.190844,-8.196356,-8.789738
10.714671,-151.313782,2.540588,8.007024,0.661624,-5.964197,-8.683758
10.730371,-151.733398,-1.976013,3.330205,0.684976,-4.927154,-7.366497
10.746556,-163.627625,0.144958,0.003789,-0.446072,-5.985154,-8.290376
10.762470,-158.149719,3.913879,1.605962,-0.722098,-5.428312,-8.911883
10.778335,-151.458740,0.480652,2.437566,-0.338895,-3.799699,-8.881347
10.794286,-151.275635,-0.022888,-0.011470,-0.419727,-4.585864,-8.305345
10.810232,-144.508362,1.441956,-0.164058,-0.773591,-4.537963,-9.095701
10.825909,-141.616821,2.197266,-2.277400,0.147294,-3.646417,-9.936952
10.841678,-142.066956,1.518250,-6.580379,-0.390987,-3.499124,-9.319036
10.857435,-139.747620,2.296448,-2.117183,-0.735870,-2.656077,-9.770498
10.873027,-142.021179,2.731323,-1.270320,0.063468,-1.756148,-9.171743
10.888588,-141.426086,0.717163,-4.398372,0.533491,-1.162782,-8.849613
10.904165,-134.468079,3.067017,-5.680110,-0.230521,-0.680186,-9.313648
10.919751,-125.434875,2.647400,-0.560786,-0.198787,-1.016686,-10.687791
10.935337,-125.442505,0.885010,-1.552607,0.052690,-0.366438,-9.569915
10.951195,-122.238159,0.785828,-0.904109,0.153880,0.153281,-9.412442
10.967052,-122.123718,-1.647949,2.574895,-0.614921,0.617316,-9.607038
10.982892,-116.973877,-1.983643,4.108403,0.197589,1.802851,-10.412363
10.998730,-117.019653,-1.426697,3.299687,0.084424,2.042952,-10.323748
11.014635,-113.220215,-0.274658,5.336736,-0.530497,1.863924,-9.337000
11.030708,-107.826233,-1.068115,2.475713,0.536484,0.361648,-8.243074
11.046842,-102.416992,-1.785278,1.262639,-0.061073,2.429149,-9.287902
11.062822,-102.645874,-0.694275,1.476262,0.440085,1.937571,-9.307062
11.078767,-95.962524,1.434326,3.437016,-0.374821,2.733316,-10.021976
11.094473,-94.482422,-0.991821,0.934575,-0.107776,3.805686,-9.078338
11.110202,-89.775085,-1.464844,1.247380,-0.508942,3.820056,-8.965772
11.125887,-83.106995,1.075745,1.590703,-0.268841,3.572770,-8.567599
11.141528,-81.726074,-2.037048,0.614141,0.050894,3.490741,-8.283191
11.157107,-75.645447,-0.396729,-0.247981,-0.208965,3.954177,-8.258043
11.172675,-77.522278,-0.175476,0.888799,0.452060,4.209247,-8.249062
11.188267,-76.583862,-1.007080,-0.087764,0.047302,4.666696,-7.669467
11.203916,-73.173523,-1.564026,0.766729,0.083227,4.882846,-8.439466
11.219521,-71.952820,-1.029968,1.644109,-0.073647,5.258265,-7.980221
11.235247,-64.918518,-1.899719,0.629399,-0.542472,5.825885,-8.293369
11.251046,-60.333252,-2.197266,1.735662,-0.105980,5.505551,-7.894599
11.266905,-53.131104,-1.609802,1.163457,0.164059,6.042036,-7.806582
11.282699,-49.690247,-2.410889,2.155278,0.228724,6.157595,-7.571271
11.298610,-47.348022,-2.243042,1.537297,-0.502954,5.601352,-7.010238
11.314636,-45.845032,-2.540588,1.560186,-0.229323,6.116880,-6.952159
11.330623,-44.563293,-3.616333,1.644109,0.048499,5.900131,-7.273690
11.346511,-42.320251,-1.396179,0.438665,-0.094603,6.280340,-7.316801
11.362394,-39.810181,-0.846863,1.499150,0.019160,6.185737,-7.186272
11.378296,-35.682678,-0.205994,0.507329,-0.105980,6.419251,-7.113224
11.394044,-34.027100,-0.579834,-0.385310,-0.232916,6.515651,-7.183877
11.409751,-30.784607,0.717163,0.263188,-0.134720,6.557563,-7.220401
11.425509,-26.214600,0.129700,0.118230,-0.097597,6.564150,-6.983893
11.441273,-22.781372,-0.106812,-0.240352,-0.095801,6.670129,-7.073706
11.456952,-20.042419,0.259399,0.438665,-0.066462,6.598279,-6.863543
11.472524,-17.585754,-0.267029,0.606511,-0.027543,6.748566,-6.836000
11.488165,-15.121460,-0.740051,0.362371,-0.113165,6.779103,-6.812649
11.503739,-13.061523,-0.442505,0.408147,-0.049697,6.823411,-6.744391
11.519404,-9.696960,-0.671387,0.301335,-0.011975,6.868317,-6.792291
11.535145,-7.980347,-0.419617,-0.080134,-0.121547,6.847361,-6.668948
11.550935,-4.837036,-0.129700,0.011418,-0.076641,6.958729,-6.719842
11.566661,-1.808167,0.183105,-0.225093,-0.055684,6.899453,-6.700682
11.582395,1.068115,0.259399,-0.385310,-0.105381,7.034173,-6.716249
11.598183,4.051208,0.267029,-0.072505,-0.128134,6.841373,-6.764150
11.613993,6.782532,-0.167847,-0.202205,-0.138911,6.828201,-6.755767
11.629928,9.269714,-0.320435,-0.263240,-0.157473,6.813830,-6.768940
11.645949,12.138367,-0.160217,-0.041987,-0.061073,6.843768,-6.851568
11.661732,14.770508,-0.053406,-0.316646,-0.067659,6.737190,-6.823427
11.677414,19.447327,0.068665,-0.667598,-0.126936,6.702462,-6.898870
11.693061,19.958496,0.640869,-0.522639,-0.083227,6.627019,-6.968325
11.708929,22.117615,0.480652,-0.614192,-0.114961,6.555767,-6.984491
11.724652,24.719238,0.602722,-1.003291,-0.114362,6.542594,-6.955751
11.740302,27.481079,0.366211,-0.621821,-0.205373,6.482121,-7.164118
11.755927,29.785156,0.572205,-0.904109,-0.257465,6.414461,-7.051552
11.771511,32.630920,0.541687,-0.629451,-0.167053,6.454577,-7.358713
11.787091,34.568787,0.617981,-0.820186,-0.107776,6.155799,-7.122804
11.802709,37.414551,0.938416,-1.056697,-0.174238,6.291716,-7.417990
11.818496,39.985657,0.320435,-1.033809,-0.119751,5.946235,-7.317400
11.834292,41.572571,0.900269,-1.140620,-0.026345,5.692363,-7.586839
11.850172,45.204163,1.388550,-1.308467,0.027543,5.847440,-7.793409
11.866007,46.226501,0.503540,-1.773860,-0.374821,5.624104,-7.494631
11.881892,50.376892,0.732422,-1.010920,-0.277822,5.667814,-8.013751
11.897860,51.406860,0.305176,-1.010920,0.053289,5.367239,-7.701800
11.913776,53.230286,1.617432,-1.621272,-0.244891,5.401368,-8.007764
11.929759,58.486938,0.915527,-0.721003,-0.470621,5.139113,-7.996986
11.945634,58.593750,0.534058,-1.270320,-0.238903,4.980443,-7.940703
11.961972,61.920166,0.160217,-1.300837,-0.148491,5.000202,-8.639450
11.977665,64.239502,0.419617,-0.743892,0.043110,4.669689,-8.471799
11.993328,66.810608,0.259399,-1.148250,0.082628,4.710405,-9.411844
12.009018,68.832397,1.907349,-0.843074,-0.383203,4.621789,-9.114861
12.024679,70.877075,0.427246,-0.873591,-0.107177,4.349954,-8.656814
12.040313,74.081421,0.907898,-1.316096,0.067061,3.935616,-9.091510
12.055944,77.102661,0.495911,-1.705195,-0.396974,3.660189,-8.889729
12.071534,77.888489,-0.144958,-1.224543,-0.087418,3.305726,-8.500539
12.087143,81.192017,-0.335693,-2.147700,0.704735,2.997367,-8.800515
12.102743,82.450867,0.328064,-0.804927,0.260458,2.938689,-9.098096
12.118535,86.708069,0.183105,-1.285579,0.429906,2.602787,-9.671104
12.134310,86.570740,-0.190735,-1.659419,-0.577798,2.824925,-9.628593
12.150178,86.715698,0.465393,-0.904109,0.088017,1.981280,-9.441782
12.166075,93.856812,0.083923,-2.323176,-0.893342,2.341730,-9.624402
12.181930,92.475891,0.267029,-1.155879,0.038320,1.527424,-9.278920
12.197841,95.146179,-0.419617,-1.003291,0.349074,1.192121,-9.755529
12.214011,99.739075,-0.205994,-0.850703,-0.280816,2.065106,-10.184237
12.229978,99.800110,-0.122070,-1.819636,-0.265847,0.661025,-9.285506
12.245900,101.509094,1.075745,-1.636531,-0.196392,1.180146,-9.535188
12.261667,103.996277,1.251221,-1.445796,-0.337099,0.014370,-9.329815
12.277289,107.444763,-1.594543,-1.888301,0.252675,-1.000519,-9.913601
12.292909,108.688354,-0.389099,-3.109004,0.134121,-1.468746,-9.017264
12.308947,110.214233,1.777649,-2.704646,-0.338297,-1.412463,-9.577100
12.325856,112.716675,-0.938416,-2.536799,-0.367037,-1.554368,-9.595063
12.342240,115.447998,-0.045776,-1.590754,0.141905,-2.368076,-8.916674
12.357869,116.920471,-0.022888,-4.093196,0.507744,-2.378254,-10.021976
12.374017,117.820740,0.892639,-4.436519,-0.181423,-2.383044,-9.745350
12.389886,117.599487,-1.586914,-1.850154,0.155078,-3.228486,-8.974752
12.405547,119.216919,-0.160217,-3.757503,0.680784,-3.726650,-9.426813
12.421275,122.184753,-1.129150,-2.918269,0.201182,-3.803291,-8.911284
12.436994,123.367310,-0.511169,-1.995112,-0.251477,-4.219426,-8.965173
12.452809,124.038696,-3.669739,-1.186396,0.208965,-4.254752,-8.002974
12.468838,124.145508,-2.288818,-0.888850,-0.404758,-4.522995,-8.004171
12.484678,127.128601,-0.648499,0.255559,0.155676,-5.062472,-8.833447
12.500459,128.417969,-0.793457,-0.026729,0.034728,-6.413263,-8.200562
12.516254,128.562927,-0.144958,1.361821,0.086819,-6.296506,-7.977826
12.532217,127.990723,0.587463,2.178166,0.450264,-5.720504,-7.413799
12.548218,127.807617,0.823975,0.865911,-0.001198,-6.664142,-6.866537
12.564269,127.952576,-1.602173,1.842473,-1.063389,-6.931785,-6.582129
12.580291,130.409241,-0.587463,2.956365,-0.237107,-8.097561,-6.955751
12.596536,129.173279,0.366211,0.423406,0.038320,-7.528145,-6.248023
12.613018,129.592896,0.053406,-0.225093,0.639470,-8.204140,-6.249220
12.628834,129.196167,-1.174927,-1.400020,0.404758,-9.841734,-6.289337
12.644501,131.515503,-0.457764,-1.102473,-0.199984,-8.354427,-5.254689
12.660105,128.555298,0.221252,-0.438716,-0.208965,-9.014853,-4.970879
12.676122,127.357483,-18.287659,-25.966669,1.341211,-6.800658,-2.532749
12.691848,116.157532,-17.181396,-44.330624,1.664539,-11.351794,0.983140
12.707511,118.171692,-4.760742,-29.720331,1.579515,-9.520802,-9.684278
12.723219,91.613770,-7.720947,-3.765132,0.810714,-9.390273,-3.685352
12.738760,66.719055,4.859924,15.552495,-0.179626,-6.010302,-1.118490
12.754373,62.896729,5.859375,12.798284,-0.081431,-6.406677,-1.751973
12.770011,16.883850,2.136230,7.648442,-1.932781,-12.008628,-1.071787
12.785978,-29.747009,-10.208130,-5.359675,-0.090412,-10.008188,-0.135334
12.801917,-56.877136,-12.878418,-12.584712,0.542472,-8.270002,0.020941
12.818170,-66.703796,-7.194519,-11.180903,-0.471819,-9.531579,0.329898
12.834537,-93.536377,-4.508972,15.827153,0.726888,-10.899734,4.583453
12.850604,-84.533691,-5.073547,12.157414,3.082390,-8.853788,-3.696130
12.866343,-95.588684,-5.210876,-6.656672,4.524192,-14.999409,-2.402819
12.882106,-84.365845,-22.895813,-32.314327,1.478925,-8.000563,-4.543368
12.897889,-84.274292,-26.855469,-8.235957,-5.728288,-10.946437,-6.977306
12.913915,-72.120667,-0.076294,16.918158,0.170645,-8.133487,-6.276763
12.929511,-60.470581,7.202148,22.533392,1.430425,-9.671089,-6.071390
12.945157,-55.030823,16.815186,22.190069,0.080233,-6.595285,-5.441500
12.960804,-51.986694,1.342773,15.781377,-0.346080,-9.333391,-5.546881
12.976600,-49.064636,-0.587463,12.157414,-0.955014,-6.721622,-6.049236
12.992302,-54.229736,3.410339,9.181951,-0.169448,-7.832313,-6.197129
13.007881,-56.312561,4.104614,3.169988,-0.487386,-7.485035,-5.804346
13.023809,-59.638977,-0.907898,-4.032161,0.284409,-7.592212,-6.346817
13.039905,-58.372498,-3.814697,-7.686641,-0.176633,-7.377259,-6.479143
13.055583,-56.625366,-2.769470,-6.794002,-0.130529,-7.611971,-7.172501
13.071174,-53.298950,-0.473022,-3.582026,-0.016765,-7.480844,-7.145556
13.086884,-49.148560,-0.350952,-2.803828,0.526306,-7.234755,-7.031793
13.102801,-48.065186,-1.892090,-1.613643,-0.056882,-7.246131,-6.893481
13.118592,-46.203613,-0.900269,1.132939,-0.315544,-6.477330,-7.038380
13.134412,-46.363831,0.068665,4.108403,0.107776,-6.689290,-7.177889
13.150219,-48.118591,0.244141,3.803227,-0.335303,-6.582711,-7.227586
13.166141,-48.645020,-0.106812,2.506230,0.017963,-6.639593,-7.367695
13.182158,-47.172546,-0.053406,1.903508,-0.143701,-6.662944,-7.701201
13.198156,-43.106079,1.159668,1.293157,-0.371228,-6.428831,-7.814366
13.214033,-40.985107,-0.473022,1.155828,-0.479004,-6.383924,-7.988005
13.230374,-38.772583,-0.305176,-0.446345,0.185614,-5.949228,-7.885618
13.246050,-38.795471,-0.495911,-1.926448,-0.228724,-6.069578,-7.902982
13.261939,-38.986206,-0.320435,-1.575496,-0.260458,-5.738467,-7.808378
13.278543,-64.178467,3.372192,-1.514460,0.538879,-7.850874,-9.018462
13.294259,-30.662537,5.912781,1.605962,-0.159868,-8.992101,-11.045247
13.310113,26.550293,0.129700,1.148198,-0.192799,-7.232959,-12.017625
13.325835,35.217285,-3.509521,-1.270320,0.255070,-6.708450,-9.658531
13.341585,38.551331,-2.593994,-0.232722,0.371827,-6.683901,-9.226829
13.357613,50.514221,1.670837,2.498601,-0.249681,-6.845564,-9.196891
13.373644,65.788269,-0.473022,2.071355,0.605940,-6.583310,-9.276525
13.389351,78.254700,-2.883911,0.804875,-0.108375,-7.365284,-8.862785
13.405114,87.402344,-1.304626,4.291509,-0.270637,-5.777985,-7.876038
13.420702,92.643738,0.549316,5.336736,0.392184,-6.230044,-7.531754
13.436540,103.218079,-0.717163,3.536199,0.120948,-6.419251,-8.274808
13.452310,110.260010,-2.082825,5.123113,-0.783770,-4.946314,-7.425774
13.468141,117.118835,3.776550,5.588506,-0.758024,-6.120472,-7.423978
13.484192,124.168396,2.449036,6.267522,-0.469424,-6.197712,-7.776644
13.500107,135.780334,0.686646,7.366155,-0.606539,-7.026389,-7.474273
13.516582,149.124146,-1.731873,8.525823,-0.208965,-6.735394,-4.117653
13.532586,152.351379,-2.159119,7.228826,-0.086819,-4.602030,-4.425413
13.548260,137.710571,-1.136780,8.861516,-0.405956,-3.767366,-4.186510
13.563946,116.790771,0.801086,8.556340,0.010778,-3.213517,-4.296681
13.579750,102.409363,3.822327,7.762883,0.589774,-1.393303,-3.785344
13.595467,72.631836,6.515503,2.666448,0.187410,-3.095563,-3.341068
13.611113,49.324036,13.572693,2.658818,-0.156874,-5.464237,-3.748820
13.627098,37.445068,12.519836,3.139470,-0.844843,-7.921527,-5.847456
13.642777,43.518066,9.559631,3.963445,-0.513732,-9.846524,-6.682719
13.658652,69.145203,-2.708435,8.319829,-0.213755,-9.644145,-6.245628
13.674602,99.990845,-0.053406,3.345464,0.466430,-9.445358,-4.181720
13.690701,119.232178,-0.373840,0.217412,0.112566,-8.767568,-4.491276
13.706677,135.063171,-1.594543,-1.102473,-0.259261,-7.418573,-3.591946
13.722523,137.573242,-4.791260,-0.705745,-0.023950,-6.645580,-2.969840
13.738260,137.397766,-2.372742,-2.506282,0.096998,-7.392228,-2.278877
13.753952,140.647888,-3.181458,-2.597835,-0.290396,-8.091574,-2.833324
13.769842,151.603699,-2.693176,-1.560237,-0.854423,-9.353748,-2.675851
13.785680,173.469543,-2.914429,-3.238704,-0.404160,-8.502918,-1.347813
13.801428,197.158813,-4.211426,-4.230525,0.589774,-8.068821,-1.343622
13.817324,211.807251,-7.591248,-3.643062,-0.046703,-8.830437,-0.214969
13.833216,243.850708,-18.569946,-48.679379,-0.847837,-19.617605,19.417604
13.849070,146.575928,19.287109,15.758489,1.878294,6.025270,7.411372
13.865001,211.860657,-37.628174,11.470769,10.440489,16.887283,-5.280435
13.880937,151.725769,6.294250,-36.151913,0.321531,-5.207371,8.701090
13.896812,179.466248,12.336731,12.912724,4.338578,-5.005591,19.417604
13.912419,129.814148,-16.632080,8.716558,2.978806,-9.167536,10.590760
13.928111,133.178711,-5.813599,-6.755855,-5.466632,-11.535611,10.043499
13.943934,150.199890,-3.021240,3.948186,-1.561553,-6.835985,2.224957
13.959772,138.847351,-11.962891,7.373784,-0.751437,-8.223300,6.967695
13.975395,143.760681,-2.822876,3.772710,-0.379012,-8.129295,7.012002
13.991042,143.669128,1.724243,-1.178767,1.619033,-5.856421,5.054673
14.006657,136.566162,8.247375,0.102971,-0.787961,-6.598877,6.812018
14.022252,138.252258,6.271362,-2.513911,0.155676,-5.439688,6.349780
14.037894,135.955811,5.111694,-1.361873,0.367037,-6.023474,6.558146
14.053644,106.483459,-6.591797,-10.334041,-6.731801,0.464035,19.417604
14.069540,124.122620,-5.004883,2.086614,4.244574,-5.560637,3.932606
14.085297,109.725952,11.611938,-1.216914,1.710643,-6.882688,8.449613
14.101129,104.660034,9.391785,-0.431086,0.720302,-4.530180,8.061021
14.117001,98.411560,6.507874,-4.146602,-0.283810,-5.564229,8.104132
14.132901,93.948364,8.819580,-4.016902,-1.354384,-5.338499,10.290186
14.148678,99.853516,4.188538,-3.063228,-0.337698,-5.148693,8.612474
14.164523,98.304749,4.776001,0.370000,-0.462838,-4.727170,9.296851
14.180430,93.513489,2.281189,-1.041438,0.462239,-3.774551,8.689115
14.196070,84.777832,-4.241943,-1.613643,0.392783,-3.277584,8.813656
14.211762,77.972412,-1.663208,2.605412,-1.896257,-3.814069,10.108164
14.228180,81.954956,-0.541687,7.251714,-1.072370,-0.769400,5.498350
14.244251,64.315796,7.972717,5.153630,1.843566,-1.758543,9.840521
14.260145,-11.886597,-8.567810,5.886052,0.355660,1.794468,5.087605
14.275873,-66.902161,23.033142,13.111089,-1.435814,-3.918851,10.017752
14.291596,-83.816528,-1.510620,8.258794,-0.020358,-3.154241,9.439954
14.307368,-80.711365,-10.154724,4.642461,0.031135,-4.002078,10.115349
14.323312,-73.600769,-2.975464,3.543828,0.569416,-3.035687,9.578266
14.338954,-67.626953,4.684448,1.003240,-0.334105,-4.067342,12.620540
14.354562,-52.200317,0.518799,-0.926997,-1.040636,-4.706812,10.624290
14.370465,-38.162231,5.279541,-2.292659,-0.493973,-5.240303,10.398561
14.386306,-1.945496,3.837585,-6.641414,-1.080154,-10.126143,11.635588
14.402194,80.047607,20.217896,-1.812007,0.092208,-12.167298,7.217375
14.418055,129.150391,3.906250,-7.404353,-0.231718,-9.018446,6.701848
14.434006,136.634827,-0.541687,-1.186396,-0.659229,-6.393505,5.315730
14.449952,120.933533,6.912231,-0.728633,-0.004191,-3.422483,3.657179
14.465891,86.502075,3.051758,-2.529170,-0.016765,-4.564309,5.370217
14.482468,58.364868,0.534058,-1.888301,-0.657433,-3.109933,8.395725
14.498427,43.991089,5.599976,-1.285579,0.397573,-1.906435,9.774657
14.514068,46.257019,-0.976562,2.567266,0.044308,-1.392704,12.727716
14.529701,55.236816,-3.112793,4.932378,-0.305964,-0.890947,13.633034
14.545296,69.641113,-3.898621,7.183049,-0.854423,-0.979563,13.392933
14.561213,85.975647,-5.439758,8.495305,-0.790955,-1.722019,12.187041
14.577010,96.160889,-2.700806,4.695867,-0.218546,-2.555486,11.053598
14.592808,104.103088,-0.892639,3.330205,-0.804727,-2.664459,8.692109
14.608371,98.571777,-0.549316,2.368901,-0.388592,-2.753075,7.088045
14.624012,85.586548,1.304626,0.698064,-0.162861,-2.409988,6.591078
14.639618,72.410583,1.434326,-1.941707,-0.302970,-1.782493,7.167080
14.655233,57.968140,3.822327,-3.139522,-0.244292,-1.296903,8.358004
14.671077,50.102234,1.312256,-2.613093,-0.307161,0.365839,10.151275
14.686965,52.825928,3.395081,-2.643611,-0.587977,0.853824,11.632594
14.702748,63.613892,0.320435,1.964543,-0.100591,0.994532,12.648083
14.718497,74.546814,-3.089905,4.383061,-0.220342,0.836461,11.537392
14.734347,86.296082,-2.281189,5.260442,-0.702938,0.511935,10.544657
14.751445,93.498230,-2.403259,6.717656,-0.365839,0.365240,9.398041
14.767472,89.942932,-2.792358,4.497502,-0.432301,0.578397,8.130477
14.783398,76.942444,-1.075745,3.246282,-0.438289,0.518522,7.530524
14.799291,61.317444,-1.113892,4.009221,-0.130529,1.162782,7.787390
14.815066,50.735474,-2.182007,4.512761,-0.059277,1.657952,8.935802
14.830715,46.615601,-2.044678,4.245732,-0.674198,2.221381,10.211749
14.846397,52.223206,0.061035,3.398870,-0.584385,2.569257,11.183528
14.862116,62.469482,-1.480103,2.979253,-0.465831,2.969225,11.368543
14.877740,72.425842,-1.724243,2.574895,-0.119751,2.678829,10.463225
14.893403,74.661255,-0.923157,5.771611,0.183219,2.462080,9.301043
14.909345,70.655823,-1.884460,3.833745,-0.053289,2.475253,8.339442
14.924936,62.568665,-0.144958,1.476262,-0.496368,2.224374,7.838883
14.940491,52.871704,-0.633240,1.743291,0.058678,2.694996,8.008929
14.956077,43.815613,-1.060486,1.033757,-0.348475,3.291954,8.954962
14.971662,42.175293,0.389099,0.057195,-0.692759,3.891907,9.477077
14.987496,44.288635,0.122070,2.384160,-0.056882,4.318220,10.383592
15.003303,48.950195,-1.052856,3.375981,-0.167651,4.636758,10.078825
15.019224,54.649353,0.244141,-1.735713,-0.374222,4.023633,9.276493
15.035088,54.168701,-0.396729,-0.721003,0.611329,3.851790,8.372972
15.051071,49.453735,-0.686646,0.995610,-0.615520,3.612288,7.945461
15.066987,41.786194,-0.335693,-1.026179,-0.400567,3.854185,7.797569
15.083009,31.379700,-0.885010,-0.194575,-0.349673,4.230203,8.312498
15.098919,28.854370,-0.152588,-1.537349,-0.462838,4.891828,8.919037
15.114864,30.418396,0.015259,0.331853,-0.134720,5.090015,9.490848
15.130777,33.027649,-0.526428,1.880620,-0.184417,5.013375,9.175304
15.146439,36.056519,-0.259399,2.887700,-0.637674,4.862488,8.569963
15.162118,34.736633,-1.235962,2.292607,-0.137115,4.576283,7.926301
15.178570,29.396057,-2.075195,2.750371,-0.440085,4.612808,7.635905
15.194435,22.468567,-0.411987,3.093694,-0.439486,5.133126,7.714941
15.210484,17.578125,-0.602722,2.353642,0.100591,4.805008,8.117903
15.226185,16.456604,-0.473022,1.918767,-0.383203,5.402565,8.369979
15.241829,17.044067,-0.175476,1.796697,-0.546663,5.438490,8.541223
15.257864,19.325256,-0.381470,1.071904,-0.002395,5.227130,8.504699
15.273779,19.424438,-0.808716,0.965093,-0.316741,5.184020,7.976597
15.289505,16.319275,0.091553,0.125859,-0.408950,5.563032,7.510167
15.305163,10.643005,-0.953674,0.461553,-0.270637,5.219347,7.383829
15.320984,5.668640,-1.174927,-0.003840,-0.299377,5.386399,7.744879
15.336825,3.341675,0.808716,-0.530269,-0.149090,5.621111,8.179575
15.352577,3.326416,-0.465393,0.072454,-0.138312,5.669011,8.358603
15.368364,4.325867,-0.061035,-0.682856,-0.282014,5.576204,8.186760
15.384214,3.997803,-0.854492,-0.141169,-0.262255,5.281018,7.896962
15.400097,1.106262,0.061035,0.713323,-0.338297,5.121150,7.626325
15.415909,-3.257751,-0.396729,0.827764,-0.208965,5.124144,7.717336
15.431698,-7.270813,-0.488281,0.736211,-0.166454,5.266049,7.879000
15.447428,-9.407043,-1.892090,0.568364,-0.163460,5.457052,8.150834
15.463046,-10.093689,-0.297546,-0.011470,-0.047900,5.506150,8.322677
15.478727,-9.696960,-0.450134,-0.881221,-0.159269,5.294191,8.274776
15.494428,-9.963989,-0.320435,-0.988032,-0.191602,5.124743,8.110718
15.510431,-11.894226,0.328064,-1.216914,-0.241298,4.950505,8.023898
15.525998,-14.556885,-0.228882,-1.125361,-0.265248,4.916975,8.009528
15.541562,-17.372131,0.198364,-0.392939,-0.313149,4.991819,8.133471
15.557121,-19.004822,0.007629,-0.209834,-0.260458,5.112169,8.345429
15.572693,-19.805908,-0.282288,0.064824,-0.143701,5.076843,8.516075
15.588294,-19.477844,-0.312805,0.133489,-0.293989,4.913383,8.456799
15.604044,-20.011902,-0.045776,-0.125911,-0.238304,4.756509,8.366386
15.619874,-21.171570,-0.228882,-0.545527,-0.206570,4.642745,8.342436
15.635744,-23.139954,-0.175476,-0.354792,-0.094005,4.551734,8.317887
15.651580,-25.131226,0.068665,-0.339534,-0.389789,4.486470,8.430453
15.667438,-26.573181,-0.045776,-1.529719,0.019759,4.452940,8.574154
15.683321,-27.458191,-0.198364,-0.621821,-0.202379,4.472699,8.770546
15.699411,-26.954651,0.648499,-0.438716,-0.374222,4.457730,8.789706
15.715313,-26.702881,1.922607,-1.369502,-0.148491,4.320615,8.800484
15.731181,-27.305603,-0.198364,-1.049067,-0.333506,4.020639,8.619061
15.746865,-28.488159,0.190735,-1.026179,-0.469424,3.887715,8.674745
15.762777,-30.372620,-0.434875,-1.026179,0.020358,3.887117,8.779527
15.778510,-31.288147,-0.717163,0.942205,-0.544268,3.972140,8.984302
15.794255,-31.639099,0.457764,0.156377,-0.190404,3.962560,9.010048
15.809896,-32.295227,-0.633240,-0.301387,0.068857,3.763175,9.065732
15.825448,-32.203674,-0.373840,-0.438716,-0.495769,3.557203,9.150156
15.840974,-31.723022,0.900269,-1.583125,-0.231119,3.469186,9.115429
15.856598,-31.967163,-0.572205,-0.926997,-0.074246,3.235671,8.907062
15.872180,-33.050537,-1.152039,-0.034358,-0.544867,3.194956,9.245957
15.887969,-32.630920,0.480652,-0.484492,-0.240699,3.178191,9.198655
15.903763,-32.096863,0.030518,-0.148799,0.114362,3.160228,9.246555
15.919530,-32.966614,-0.877380,0.293706,-0.380808,2.909949,9.252543
15.935415,-33.493042,0.320435,-0.347163,-0.280816,2.807562,9.315413
15.951298,-32.760620,-0.038147,0.019048,-0.226329,2.691403,9.433966
15.967227,-32.852173,-0.167847,-1.201655,-0.176034,2.651287,9.353733
15.983296,-32.295227,-0.480652,-0.797297,-0.284409,2.643503,9.306431
15.999093,-32.844543,1.358032,-1.911189,-0.149689,2.844086,9.369900
16.015079,-33.927917,-0.511169,-2.590205,-0.227527,2.611769,9.470490
16.030749,-32.249451,1.625061,-4.016902,-0.494572,2.389032,9.347147
16.046500,-33.012390,1.373291,-4.581477,-0.130529,2.281855,9.450132
16.062173,-32.768250,1.403809,-4.184749,-0.299377,2.204616,9.559106
16.077844,-31.486511,1.068115,-4.108455,-0.702339,1.799258,9.577068
16.093586,-30.746460,1.075745,-3.894832,-0.383203,2.030977,9.612395
16.109525,-30.982971,0.640869,-2.880122,-0.483195,1.729204,9.540545
16.125064,-30.479431,-0.343323,-2.056148,-0.464634,1.626817,9.569284
16.140689,-30.807495,1.029968,-0.911738,-0.217348,1.310076,9.580661
16.156350,-30.563354,-0.465393,-0.110652,-0.267045,1.200504,9.562099
16.172261,-30.654907,-1.289368,-0.087764,-0.507145,1.170566,9.819564
16.188140,-29.365540,-0.617981,1.506780,-0.432301,1.292113,10.032721
16.203947,-26.031494,-1.724243,1.255010,-0.284409,0.958607,10.230908
16.219859,-24.040222,-1.800537,1.361821,-0.356858,0.808319,9.786633
16.235813,-24.314880,-0.785828,2.384160,-0.075443,0.881966,10.109362
16.251926,-23.216248,-1.373291,1.117681,-0.095801,0.835263,9.616587
16.268337,-22.766113,-0.900269,0.621770,-0.158670,0.537682,9.657901
16.284222,-22.895813,-0.564575,0.400518,-0.039518,0.531096,9.782441
16.300020,-22.193909,-0.602722,-1.148250,-0.120948,0.643661,10.037511
16.315825,-19.699097,1.937866,-0.804927,-0.179626,0.573607,10.036912
16.331511,-17.463684,0.671387,-1.270320,-0.108375,0.507744,9.958475
16.347126,-15.754700,0.556946,-2.117183,-0.220342,0.450862,9.905785
16.362775,-14.633179,1.319885,-2.254512,-0.332908,0.316143,9.766873
16.378476,-13.893127,1.266479,-2.727534,-0.266446,0.213157,9.666882
16.394101,-13.626099,1.258850,-2.887752,-0.273032,0.199385,9.744122
16.409675,-12.947083,0.984192,-1.995112,-0.201780,0.131726,9.704004
16.425220,-12.191772,0.503540,-1.712825,-0.338297,0.192799,10.044696
16.440804,-11.634827,0.579834,-2.277400,-0.313149,0.734672,10.315932
16.456400,-9.506226,-0.015259,-1.010920,-0.437690,0.301772,10.267433
16.472239,-7.789612,0.801086,-0.301387,-0.155676,0.105980,10.097386
16.488047,-5.142212,-0.434875,0.492070,-0.382604,-0.011376,9.788429
16.503952,-4.570007,0.312805,0.629399,-0.133522,-0.128732,9.740528
16.520023,-2.120972,-0.984192,0.751470,-0.283810,0.016765,9.871655
16.535899,-3.562927,-1.029968,0.850652,-0.352068,-0.231718,9.807590
16.551874,-2.632141,-0.404358,0.736211,-0.101190,-0.132325,9.960871
16.567750,-1.441956,-0.915527,0.499700,-0.142504,0.005988,9.971648
16.583442,0.587463,-0.350952,0.431035,-0.167651,-0.273631,10.123732
16.599207,3.471375,-0.526428,0.324224,-0.414338,0.047900,10.028530
16.614850,5.180359,-0.663757,0.423406,-0.376018,0.383203,9.450731
16.630537,7.743835,-0.473022,-0.164058,-0.442480,-0.014969,9.813577
16.646305,8.949280,0.068665,-0.385310,-0.334704,0.112566,9.669277
16.662002,9.124756,0.465393,-0.431086,-0.247885,-0.061672,9.690832
16.677626,9.239197,0.297546,-0.690486,-0.459245,-0.043110,9.754899
16.693618,10.337830,0.633240,-0.919368,-0.344284,0.188608,9.813577
16.709441,12.374878,0.770569,-0.896479,-0.328716,0.138911,9.951889
16.725017,14.999390,-0.061035,-0.759150,-0.318538,0.088616,9.778849
16.740588,19.416809,0.289917,-0.209834,-0.370031,0.236508,9.938717
16.756386,20.401001,-0.091553,0.102971,-0.302371,0.222737,9.862076
16.772417,21.957397,-0.282288,0.469182,-0.362247,0.420925,9.837527
16.788263,23.696899,-0.122070,0.499700,-0.384999,0.382604,9.742325
16.804034,24.536133,0.038147,0.560735,-0.320933,0.454455,9.745917
16.819852,25.451660,-0.984192,1.399968,-0.374222,0.562231,9.752503
16.835692,26.702881,-1.403809,2.605412,-0.369432,0.643063,9.783639
16.851619,28.289795,-1.419067,2.765630,-0.398172,0.746647,9.844113
16.867432,29.586792,-2.037048,3.360723,-0.218546,0.882565,9.842916
16.883254,31.257629,-2.143860,3.581975,-0.343087,0.968785,9.800404
16.899137,32.386780,-2.021790,3.581975,-0.435894,1.151406,9.837527
16.914759,33.432007,-2.174377,3.597234,-0.392184,1.195115,9.760287
16.930435,34.324646,-1.945496,2.758000,-0.336500,1.332230,9.744122
16.946010,35.423279,-1.380920,2.643559,-0.256267,1.500480,9.744122
16.961824,36.750793,-0.907898,1.644109,0.003593,1.541195,9.663289
16.977469,37.612915,-0.732422,1.331304,-0.131726,1.606459,9.686042
16.993032,38.810730,-0.228882,0.827764,-0.148491,1.678909,9.599222
17.008626,39.772034,0.640869,-0.926997,-0.139510,1.887275,9.611197
17.024238,40.870667,0.335693,-1.010920,-0.123942,2.032773,9.647721
17.039879,41.870117,0.991821,-0.789668,-0.237706,2.003434,9.620179
17.055674,43.312073,0.228882,-0.515010,-0.226329,2.379452,9.556711
17.071500,44.204712,0.068665,-0.972773,-0.358055,2.580634,9.541742
17.087317,45.501709,0.419617,0.179265,-0.292791,2.503993,9.389059
17.103267,46.119690,-1.060486,1.666997,-0.428110,2.784210,9.251945
17.119275,46.813965,-1.060486,2.124761,-0.346080,2.809358,9.280087
17.135242,46.974182,-2.098083,4.154180,-0.304167,2.930905,9.292660
17.151292,47.302246,-1.388550,4.245732,-0.173639,3.189567,9.139977
17.167221,47.676086,-1.663208,4.512761,-0.167651,3.213517,9.186680
17.183209,48.202515,-1.960754,5.214665,0.311353,3.505710,9.372294
17.199234,49.316406,-1.647949,2.963994,-0.519719,3.840414,9.241766
17.214960,50.498962,-0.259399,0.339482,0.490979,3.804488,8.959752
17.230607,51.437378,-0.816345,0.652288,-0.095202,3.800896,8.770546
17.246322,51.277161,-0.503540,-0.255610,-0.589175,3.748804,8.713664
17.261943,49.957275,0.511169,-1.468684,-0.346080,4.069138,8.620857
17.277701,49.003601,-0.297546,-1.873042,-0.182021,4.339776,8.639419
17.293739,50.498962,-1.022339,0.583623,-0.858615,4.716392,8.844791
17.309667,49.774170,0.190735,1.277898,-0.049697,4.803212,8.686720
17.325259,50.987244,-1.968384,1.430486,-0.117955,4.997208,8.636425
17.340803,52.574158,-2.204895,2.384160,-0.593965,4.669689,8.579543
17.356530,52.421570,0.312805,2.445195,-0.201780,5.096003,8.114909
17.372315,51.628113,-1.373291,2.323125,0.092208,5.046306,8.162809
17.388117,50.712585,-1.602173,2.078984,-0.900527,5.271438,8.165803
17.403849,50.071716,-0.366211,1.514409,0.070653,5.289999,7.993362
17.419636,49.415588,-1.281738,2.185796,-0.475411,5.861810,8.174186
17.435465,50.613403,-0.869751,0.499700,-0.373024,6.080356,7.981387
17.451310,51.521301,-1.304626,1.926396,0.220342,5.713918,7.619739
17.467046,50.659180,-1.037598,1.888250,-0.528102,5.842052,7.486815
17.482678,49.880981,-0.991821,2.048467,0.102986,5.971383,7.428736
17.498321,49.354553,-1.564026,1.628850,-0.188009,6.044431,7.211987
17.513940,47.676086,-0.099182,1.796697,-0.274828,6.436615,7.356287
17.529750,48.164368,-0.823975,1.270269,-0.108375,6.403085,7.189234
17.545338,47.462463,-1.083374,1.125310,-0.252076,6.671327,7.172469
17.560942,47.767639,-0.785828,2.170537,0.089214,6.721622,7.041342
17.576493,47.973633,-0.404358,2.613042,-0.347278,6.952143,6.895246
17.592116,47.698975,-0.534058,1.033757,-0.083227,6.853348,6.621016
17.607799,46.386719,-1.174927,0.720952,0.204175,6.856342,6.504259
17.623674,45.707703,-0.793457,1.926396,-0.122146,6.989864,6.556350
17.639538,45.196533,0.083923,2.193425,-0.164059,7.147936,6.377921
17.655283,44.784546,-0.793457,1.499150,-0.026345,7.241342,6.382113
17.671071,44.036865,-1.586914,1.117681,-0.075443,7.415579,6.196498
17.686949,43.289185,-0.297546,1.956914,-0.027543,7.486232,6.056989
17.702833,43.449402,0.480652,2.483342,-0.240699,7.508386,5.989928
17.718694,42.572021,0.030518,1.178716,-0.002395,7.561676,5.818085
17.734497,41.488647,-1.724243,1.232122,-0.091610,7.759863,5.892930
17.750304,41.633606,-0.900269,1.537297,-0.201182,7.887997,5.798925
17.765945,42.358398,-0.495911,2.696965,-0.205972,8.087981,5.702526
17.782264,42.556763,0.869751,1.995061,-0.280816,8.122708,5.526492
17.798096,42.327881,-0.015259,1.842473,0.024549,8.119116,5.326508
17.813880,42.877197,-1.922607,0.835393,0.004790,7.829319,4.970847
17.829651,40.367126,2.380371,-1.544978,-0.185614,6.674920,6.311460
17.845308,39.100647,-0.259399,3.833745,-0.372426,8.940009,5.269626
17.860961,37.826538,-0.076294,5.832646,-0.075443,8.006550,3.703283
17.876669,32.180786,4.241943,6.275151,-0.555046,9.164542,3.698493
17.892596,26.702881,4.325867,9.830449,-0.002994,8.301138,3.639216
17.908525,20.446777,5.187988,9.365056,-0.399370,8.430469,3.761362
17.924203,12.748718,6.454468,10.616277,0.040715,8.459209,3.824830
17.939972,7.514954,5.523682,9.258245,0.167651,8.041278,3.901471
17.955778,1.121521,2.220154,6.771062,0.435894,8.347840,4.046370
17.971726,-2.120972,2.502441,3.223393,0.506547,8.346045,4.185880
17.987544,-5.226135,-0.175476,-0.415828,0.564626,8.642428,4.357123
18.003377,-5.821228,-2.464294,-3.620173,0.395178,8.565188,4.500226
18.019411,-3.997803,-3.677368,-5.962398,0.218546,8.522677,4.523577
18.035434,-6.835938,-4.371643,-6.755855,0.220941,8.374186,4.521182
18.051174,-9.269714,-4.562378,-7.343318,-0.700543,8.651409,4.679254
18.067112,-10.108948,-3.456116,-6.328609,-0.285007,7.995773,4.877441
18.082852,-9.529114,-2.944946,-5.176570,-0.156275,8.312514,4.643927
18.098573,-10.581970,-1.388550,-2.407100,-0.698148,8.304730,4.940909
18.114307,-8.918762,1.159668,0.987981,-0.190404,8.246651,4.932527
18.130044,-8.476257,1.502991,2.460454,-0.167651,8.240664,4.807986
18.145645,-9.010315,1.060486,2.384160,-0.022154,8.184979,4.797208
18.161215,-10.261536,1.571655,2.597783,0.293390,8.001162,4.914564
18.176870,-11.184692,1.106262,1.247380,-0.092807,8.091574,5.001982
18.192598,-11.253357,-0.343323,0.141118,-0.101788,8.068222,5.087605
18.208257,-10.704041,0.152588,-0.347163,-0.127535,8.109536,5.153467
18.224137,-9.498596,-0.793457,-1.186396,0.086819,8.204739,5.026531
18.240026,-8.293152,-0.755310,-1.537349,-0.128732,8.104746,5.213942
18.255823,-7.911682,0.267029,-0.926997,-0.176034,8.105345,5.075629
18.271698,-8.979797,-0.236511,-0.904109,-0.023950,7.964637,5.065451
18.287794,-10.375977,-0.488281,-0.110652,-0.268841,8.036488,5.158856
18.303780,-10.269165,0.350952,0.843022,-0.028141,8.050858,5.298366
18.319693,-9.521484,0.274658,0.316594,0.069456,7.938891,5.334291
18.335537,-9.025574,-0.640869,-0.667598,0.049697,8.014933,5.438475
18.351458,-7.240295,-0.312805,-1.094844,0.009580,8.004754,5.442666
18.367221,-6.164551,-0.579834,-1.453425,-0.037123,8.002957,5.615108
18.382841,-5.180359,-0.686646,-1.377131,-0.135319,7.943082,5.431290
18.398491,-4.936218,-0.564575,-0.858333,-0.107776,7.873627,5.427098
18.414119,-4.646301,-0.343323,-0.415828,-0.098196,7.857460,5.619897
18.429779,-4.219055,-0.190735,0.133489,-0.134720,7.896978,5.521702
18.445438,-3.288269,-0.053406,0.492070,-0.066462,7.904762,5.549244
18.461118,-0.045776,-0.221252,0.499700,-0.015568,7.916138,5.536072
18.476781,-1.029968,-0.083923,0.354741,-0.037722,7.922126,5.530683
18.492836,-0.495911,-0.144958,-0.041987,-0.001198,7.867639,5.467215
18.508774,-0.221252,-0.228882,-0.484492,-0.013771,7.888596,5.499548
18.524341,0.267029,-0.251770,-0.415828,-0.073647,7.864645,5.544455
18.540217,1.190186,-0.267029,-0.278499,-0.057480,7.887997,5.574392
18.556079,2.273560,-0.274658,-0.049617,-0.089813,7.910749,5.553436
18.571912,3.364563,-0.267029,0.301335,-0.101788,7.919132,5.534276
18.587816,4.013062,-0.022888,0.575994,-0.126337,7.887997,5.507930
18.603775,4.692078,0.038147,0.736211,-0.061073,7.898775,5.479789
18.619720,4.867554,-0.297546,0.606511,-0.052092,7.917934,5.503739
18.635666,5.821228,-0.129700,2.277349,-0.001198,7.976613,5.463623
18.651504,6.568909,-0.282288,0.247930,-0.008981,7.826325,5.455839
18.667442,7.301331,-0.457764,-0.110652,-0.017963,7.923922,5.420512
18.683180,7.614136,-0.572205,-0.087764,-0.004790,7.996970,5.421111
18.698886,8.018494,-0.320435,-0.072505,-0.056882,8.066425,5.362433
18.714587,9.140015,-0.366211,0.690435,-0.171244,8.139474,5.272620
18.730456,9.628296,0.015259,1.247380,-0.113763,8.069420,5.212145
18.746079,9.254456,-0.259399,0.987981,0.019759,8.134085,5.149276
18.761711,8.270264,-0.526428,0.591252,0.073048,8.024513,5.091795
18.777258,7.560730,-0.671387,-0.209834,0.044907,8.023315,5.140893
18.792938,7.667542,-1.159668,-0.537898,-0.040117,8.146060,5.242682
18.808547,8.934021,-1.434326,-0.721003,-0.234113,8.065827,5.337285
18.824290,9.963989,-1.159668,-0.659968,-0.232916,8.079000,5.250466
18.840077,10.856628,-1.045227,-0.202205,-0.144899,8.097561,5.292977
18.855857,14.739990,-1.602173,1.415227,-0.389191,8.300539,4.350537
18.871717,10.612488,-0.328064,1.949285,-0.074246,8.200547,4.342155
18.887495,11.299133,0.061035,2.506230,-0.305365,8.679551,4.379876
18.903311,7.743835,1.289368,3.253911,-0.194595,8.475375,4.351735
18.919178,5.752563,1.571655,3.185246,-0.086221,8.229886,4.446338
18.935000,3.746033,1.602173,2.490972,0.047302,8.520881,4.475677
18.950908,0.991821,1.274109,1.621221,0.100591,8.353230,4.597224
18.968559,-1.007080,-1.838684,0.278447,0.062271,8.361013,4.688834
18.984259,-2.670288,-1.327515,-1.003291,0.141905,8.192763,4.739728
18.999986,-4.226685,-3.906250,-2.185847,0.024549,8.246052,4.928934
19.015681,-4.707336,-2.464294,-3.147151,0.064666,8.164022,4.856485
19.031475,-5.310059,-2.342224,-3.398921,-0.022753,8.101752,4.986415
19.047314,-5.310059,-1.770020,-3.185298,-0.046104,8.235873,5.094191
19.062944,-4.219055,-1.205444,-2.162959,-0.155676,8.199349,5.100178
19.078634,-3.684998,-0.694275,-1.094844,-0.222138,8.147857,5.185202
19.094650,-2.403259,-0.518799,-0.392939,-0.100591,8.156837,5.283397
19.110654,-1.052856,0.137329,0.400518,-0.074246,8.224497,5.151671
19.126228,0.038147,0.518799,0.972722,0.022753,8.071216,5.264237
19.141913,1.480103,0.122070,0.728582,-0.055085,8.147258,5.249268
19.157888,2.426147,-0.297546,0.461553,0.022753,8.138276,5.226515
19.173684,3.707886,-0.373840,0.171636,-0.037722,8.080796,5.030124
19.189419,4.669189,-0.457764,0.240300,0.125140,8.296947,5.135505
19.205227,4.562378,0.083923,0.514959,-0.174836,8.187374,4.964261
19.221064,4.051208,1.846313,0.965093,-0.085622,8.225096,4.886423
19.236890,3.120422,0.305176,1.300786,-0.079036,8.289163,4.822955
19.252745,1.586914,0.213623,1.110051,-0.020956,8.250842,4.804393
19.268691,0.724792,0.396729,0.705693,0.124541,8.283175,4.811578
19.284578,-1.907349,0.045776,0.133489,-0.009580,8.273595,4.879837
19.301032,-0.663757,-0.473022,-0.392939,0.027543,8.245454,4.882830
19.316717,-1.640320,-0.411987,-0.721003,-0.008383,8.202343,4.907379
19.332394,-1.731873,-0.801086,-0.888850,0.025746,8.268805,4.949292
19.348012,-2.502441,-0.663757,-0.789668,-0.067659,8.137677,4.975637
19.363644,-2.471924,-0.312805,-0.499751,-0.119152,8.177794,5.067247
19.379195,-2.143860,-0.450134,-0.194575,-0.022753,8.184381,5.111555
19.394724,-1.098633,-0.144958,-0.041987,-0.047900,8.180189,5.116344
19.410263,-0.221252,-0.320435,0.026677,-0.005988,8.179590,5.135505
19.425869,0.816345,-0.320435,0.019048,-0.052690,8.125104,5.132511
19.441696,1.487732,-0.312805,0.064824,-0.079036,8.143665,5.096586
19.457694,1.914978,-0.259399,0.240300,-0.027543,8.199948,5.076827
19.473468,2.456665,-0.198364,0.492070,-0.070653,8.204140,5.012161
19.489280,2.471924,0.038147,0.629399,-0.027543,8.267608,4.970248
19.505202,2.754211,0.061035,0.690435,-0.026345,8.222102,4.946897
19.521104,0.091553,-0.045776,0.453923,0.049098,8.236472,4.921749
19.536953,1.419067,-0.061035,0.194524,0.026345,8.301737,4.857084
19.552765,0.320435,-0.358582,-0.179316,-0.056882,8.201145,4.858281
19.568511,-0.213623,-0.312805,-0.339534,-0.033530,8.136480,4.878639
19.584212,-0.541687,-0.442505,-0.309016,-0.056882,8.262218,4.883429
19.599854,-1.174927,-0.366211,-0.225093,-0.052092,8.244256,4.901990
19.615596,-1.480103,-0.305176,-0.293757,-0.031135,8.197553,4.945700
19.631348,-1.655579,-0.442505,-0.209834,-0.022154,8.190967,5.024735
19.647035,-1.289368,-0.335693,-0.293757,-0.001796,8.164621,5.068444
19.662728,-0.785828,-0.465393,-0.263240,-0.019160,8.181387,5.115746
19.678592,-0.083923,-0.572205,-0.240352,-0.042512,8.168214,5.106166
19.694681,0.549316,-0.236511,-0.019099,-0.080233,8.171806,5.082216
19.710609,1.068115,-0.328064,0.202153,-0.038919,8.177196,5.069642
19.726212,1.243591,-0.099182,0.316594,-0.072449,8.202343,5.057667
19.741803,1.411438,-0.129700,0.507329,-0.026345,8.195757,5.037309
19.757596,1.693726,0.152588,0.446294,-0.040715,8.227490,4.987013
19.773385,1.937866,-0.213623,0.354741,-0.019160,8.232880,4.970847
19.789223,1.823425,-0.198364,0.133489,-0.012574,8.209528,4.910972
19.805567,1.335144,-0.503540,-0.011470,-0.064067,8.241861,4.895404
19.821474,0.541687,-0.167847,-0.019099,-0.011975,8.223898,4.877441
19.837462,-0.030518,-0.259399,-0.011470,-0.025746,8.238867,4.888818
19.853453,-0.617981,-0.190735,-0.011470,-0.020956,8.250243,4.915163
19.869322,-0.740051,-0.335693,-0.057246,-0.020956,8.240065,4.945700
19.885286,-0.755310,-0.366211,-0.293757,-0.034728,8.184979,4.966057
19.901202,-0.839233,-0.312805,-0.316646,-0.014969,8.199349,5.012161
19.916877,-0.785828,-0.381470,-0.339534,-0.022154,8.173603,5.017550
19.932556,-0.465393,-0.396729,-0.217463,-0.055684,8.195158,5.040902
19.948208,-0.122070,-0.183105,-0.011470,-0.059277,8.209528,5.078623
19.963812,0.411987,-0.267029,0.164006,-0.044308,8.182584,5.039105
19.979375,0.938416,-0.183105,0.286077,-0.052092,8.192763,5.046290
19.994932,1.182556,-0.167847,0.217412,-0.019759,8.207732,5.031920
20.010556,1.434326,-0.122070,0.247930,-0.031135,8.187973,5.003778
20.026161,1.327515,-0.175476,0.179265,-0.007185,8.222102,4.979230
20.042016,1.388550,-0.244141,-0.019099,-0.024549,8.225695,4.936120
20.057894,1.365662,-0.282288,0.171636,-0.043110,8.222102,4.900793
20.073696,0.801086,-0.236511,0.041936,-0.013173,8.234077,4.914564
20.089612,0.358582,-0.259399,0.186895,-0.026345,8.225695,4.919354
20.105584,-0.053406,-0.267029,0.034307,-0.024549,8.220904,4.915163
20.121508,-0.320435,-0.259399,-0.103022,-0.009580,8.231682,4.952286
20.137566,-0.434875,-0.244141,-0.202205,-0.051493,8.238867,4.976835
20.153481,-0.450134,-0.251770,-0.247981,-0.031135,8.193362,4.990007
20.169503,-0.617981,-0.320435,-0.186946,-0.062271,8.220305,4.972044
20.185395,-0.595093,-0.343323,-0.110652,-0.041314,8.195158,5.015754
20.201227,-0.175476,-0.434875,-0.133540,-0.019759,8.223898,5.043296
20.216902,0.205994,-0.312805,-0.026729,-0.046703,8.196955,5.045691
20.232674,0.373840,-0.190735,0.171636,-0.050894,8.166418,5.063056
20.248567,0.808716,-0.289917,0.110601,-0.043110,8.190368,5.025933
20.265001,0.984192,-0.411987,0.156377,-0.022753,8.202343,4.997192
20.280858,1.060486,-0.167847,0.125859,-0.034728,8.213719,4.976835
20.296497,0.968933,-0.190735,0.141118,-0.038919,8.202343,4.990007
20.312299,1.060486,-0.129700,0.156377,-0.042512,8.259225,4.961267
20.328425,0.968933,-0.106812,0.148748,-0.029938,8.226294,4.944502
20.344065,0.740051,-0.297546,0.011418,-0.020956,8.212522,4.939712
20.359775,0.305176,-0.251770,0.057195,-0.002994,8.229886,4.939113
20.375635,-1.861572,-0.358582,0.019048,-0.016166,8.213719,4.936120
20.391482,-0.068665,-0.381470,-0.156428,-0.026944,8.256231,4.975637
20.407272,-0.358582,-0.335693,-0.095393,-0.016166,8.216713,4.976835
20.423048,-0.099182,-0.320435,-0.064875,-0.037722,8.213120,4.982822
20.438920,-0.305176,-0.183105,-0.041987,-0.031135,8.185578,4.994199
20.454920,-0.190735,-0.213623,-0.041987,-0.048499,8.210127,5.007970
20.470825,0.190735,-0.312805,-0.019099,-0.047900,8.202343,5.034315
20.486621,0.328064,-0.167847,0.019048,-0.017364,8.195757,5.034315
20.502445,0.595093,-0.373840,0.156377,-0.038320,8.215516,5.031322
20.518287,0.816345,-0.236511,-0.003840,-0.029938,8.201744,4.994199
20.533979,1.052856,-0.274658,0.110601,-0.035327,8.178393,5.000186
20.549631,0.938416,-0.282288,0.247930,-0.031734,8.228089,4.979230
20.565455,0.831604,-0.221252,0.118230,-0.010778,8.232281,4.988810
20.581081,0.747681,-0.328064,0.019048,-0.017364,8.220904,4.939113
20.596635,0.595093,-0.328064,0.057195,-0.052690,8.220305,4.956477
20.612215,0.465393,-0.350952,-0.041987,-0.013771,8.228089,4.957076
20.627782,0.198364,-0.251770,-0.019099,-0.037123,8.218510,4.962465
20.643517,1.907349,-0.366211,-0.072505,-0.041314,8.220904,4.937317
20.660241,-0.190735,-0.213623,-0.148799,-0.027543,8.207732,4.954681
20.676214,-0.228882,-0.495911,-0.087764,-0.038320,8.223898,4.978032
20.692173,-0.099182,-0.381470,-0.026729,-0.014370,8.223300,5.004976
20.708178,1.907349,-0.274658,-0.019099,-0.028740,8.200547,5.002581
20.723852,0.114441,-0.282288,-0.095393,-0.042512,8.207133,4.991205
20.739416,0.297546,-0.228882,-0.049617,-0.047900,8.200547,5.016951
20.755394,0.343323,-0.236511,0.003789,-0.051493,8.199349,5.019346
20.771347,0.556946,-0.274658,0.072454,-0.046104,8.220904,5.007970
20.787147,0.724792,-0.228882,0.110601,-0.038919,8.196955,4.987612
20.803189,0.801086,-0.267029,0.049565,-0.032932,8.201744,4.984619
20.819995,0.793457,-0.228882,0.133489,-0.026944,8.234676,4.963063
20.835699,0.564575,-0.228882,0.080083,-0.046703,8.228089,4.956477
20.851414,0.587463,-0.289917,0.034307,-0.037722,8.204739,4.957675
20.867132,0.457764,-0.419617,0.026677,-0.028740,8.246651,4.954082
20.882890,0.373840,-0.228882,-0.003840,-0.006586,8.195757,4.970248
20.898793,0.144958,-0.259399,0.026677,-0.031135,8.215516,4.959471
20.914405,-0.007629,-0.259399,0.011418,-0.038320,8.213120,4.961866
20.929964,-0.030518,-0.274658,-0.057246,-0.028740,8.208331,4.965458
20.945535,-0.152588,-0.244141,-0.095393,-0.039518,8.207133,4.997791
20.961132,0.152588,-0.259399,-0.049617,-0.034129,8.208929,4.990606
20.976819,-0.007629,-0.366211,-0.072505,-0.042512,8.194559,5.003180
20.992604,0.228882,-0.350952,-0.011470,-0.025148,8.211325,5.003180
21.008604,0.305176,-0.251770,0.041936,-0.028740,8.186176,5.006773
21.024389,0.495911,-0.244141,0.019048,-0.040117,8.207133,5.001982
21.040182,0.602722,-0.259399,0.095342,-0.020956,8.199948,5.011562
21.056004,0.770569,-0.236511,0.141118,-0.032333,8.220305,4.981026
21.072481,0.709534,-0.183105,-0.041987,-0.004191,8.226294,4.982224
21.088465,0.579834,-0.350952,0.019048,-0.041314,8.229287,4.978032
21.104446,0.556946,-0.320435,0.080083,-0.028740,8.207732,4.970847
21.120282,0.503540,-0.297546,0.003789,-0.026345,8.232880,4.955878
21.136243,0.282288,-0.289917,-0.003840,-0.036524,8.221503,4.948693
21.152122,0.244141,-0.167847,0.095342,-0.017364,8.208929,4.960669
21.167933,0.114441,-0.282288,-0.003840,-0.013173,8.244855,4.973841
21.183707,0.114441,-0.274658,-0.049617,-0.034728,8.192763,4.981625
21.199404,0.167847,-0.289917,-0.156428,-0.033530,8.219109,4.963063
21.215167,0.061035,-0.236511,0.095342,-0.033530,8.217911,4.997791
21.230732,0.167847,-0.274658,-0.019099,-0.013771,8.208929,4.988211
21.246368,0.213623,-0.183105,0.049565,-0.016166,8.216713,4.996593
21.262335,0.251770,-0.213623,0.019048,-0.030536,8.214917,5.007371
21.278439,0.389099,-0.297546,-0.041987,-0.037123,8.209528,5.015754
21.294098,0.572205,-0.251770,0.072454,-0.050894,8.201744,4.970248
21.310025,0.526428,-0.251770,0.026677,-0.064666,8.207732,4.991205
21.325832,0.442505,-0.259399,0.133489,-0.043709,8.205935,4.991205
21.341593,0.595093,-0.228882,0.034307,-0.032333,8.192164,4.979230
21.357596,0.381470,-0.228882,0.125859,-0.040117,8.208331,4.979828
21.373555,0.473022,-0.205994,0.064824,0.004191,8.226892,4.941508
21.389685,0.366211,-0.190735,-0.057246,-0.026345,8.226892,4.976835
21.405635,0.305176,-0.236511,-0.064875,-0.033530,8.213120,4.985816
21.421421,0.152588,-0.221252,0.026677,-0.025746,8.225096,4.982224
21.437202,0.129700,-0.305176,0.034307,-0.049697,8.225096,4.976236
21.452867,0.358582,-0.267029,-0.080134,-0.019759,8.203541,4.981625
21.468541,0.122070,-0.366211,-0.003840,-0.053888,8.196356,4.984619
21.484139,0.282288,-0.099182,-0.072505,-0.049098,8.217911,5.005575
21.499801,0.274658,-0.343323,-0.019099,-0.031734,8.190368,4.979230
21.515472,0.396729,-0.289917,-0.003840,-0.025746,8.223300,4.997192
21.531094,0.267029,-0.267029,0.003789,-0.029938,8.205935,4.988810
21.546631,0.663757,-0.251770,-0.049617,-0.029339,8.202942,4.988810
21.562227,0.450134,-0.183105,0.102971,-0.043110,8.211924,4.981026
21.577856,0.663757,-0.205994,0.003789,-0.013173,8.211325,4.975637
21.593625,0.595093,-0.259399,0.049565,-0.022154,8.198152,4.986415
21.609596,0.518799,-0.373840,-0.003840,-0.040715,8.224497,4.986415
21.625402,0.473022,-0.244141,-0.026729,-0.022753,8.205935,4.973841
21.641206,0.320435,-0.274658,-0.072505,-0.035925,8.213120,4.966656
21.657171,0.312805,-0.213623,-0.011470,-0.026944,8.216114,4.954082
21.673115,0.312805,-0.251770,-0.019099,-0.049697,8.207133,4.973841
21.689053,0.350952,-0.129700,0.087712,-0.033530,8.258626,4.959471
21.705129,0.137329,-0.228882,0.064824,-0.008981,8.223300,4.994797
21.720863,0.289917,-0.190735,-0.072505,-0.005988,8.204140,4.982224
21.736664,0.198364,-0.282288,0.034307,-0.017364,8.208929,4.973841
21.752304,0.259399,-0.236511,0.003789,-0.036524,8.206534,4.999588
21.767940,0.289917,-0.289917,0.064824,-0.027543,8.196955,4.988211
21.783701,0.297546,-0.251770,-0.080134,-0.025746,8.218510,4.993600
21.799410,0.442505,-0.167847,0.072454,-0.035925,8.216713,4.998390
21.815078,0.450134,-0.175476,0.064824,-0.036524,8.207133,4.993600
21.830735,0.549316,-0.312805,0.003789,-0.035327,8.249645,4.997791
21.846341,0.503540,-0.213623,-0.003840,-0.037722,8.199948,4.972044
21.862048,0.343323,-0.267029,0.026677,-0.052690,8.225695,4.984619
21.877907,0.427246,-0.221252,0.118230,-0.055085,8.216114,4.973841
21.893894,0.312805,-0.320435,-0.011470,-0.013173,8.219707,4.961267
21.909869,0.343323,-0.259399,0.095342,-0.034129,8.216114,4.981625
21.926031,0.328064,-0.236511,0.003789,-0.032932,8.205337,4.985816
21.941911,0.373840,-0.373840,-0.103022,-0.022753,8.191566,4.983421
21.957904,0.213623,-0.198364,0.019048,-0.047900,8.210127,4.974440
21.973752,0.175476,-0.305176,-0.110652,-0.022753,8.202942,4.991804
21.989691,0.190735,-0.373840,-0.003840,-0.038320,8.220904,4.969051
22.005531,0.228882,-0.175476,-0.057246,-0.055085,8.216114,4.990007
22.021288,0.312805,-0.251770,-0.034358,-0.041913,8.241262,4.984619
22.037056,0.373840,-0.236511,-0.034358,-0.032333,8.189171,4.998989
22.052737,0.328064,-0.282288,0.049565,-0.047900,8.222102,4.981625
22.069249,0.427246,-0.289917,-0.164058,-0.039518,8.188572,4.997791
22.085214,0.564575,-0.259399,-0.064875,-0.020956,8.219707,4.969051
22.101228,0.518799,-0.305176,0.049565,-0.029938,8.228688,4.956477
22.117030,0.373840,-0.244141,0.034307,-0.023351,8.204140,4.973841
22.132702,0.320435,-0.350952,0.064824,-0.040715,8.198750,4.976236
22.148393,0.404358,-0.183105,-0.072505,-0.031734,8.217911,4.963662
22.164643,0.366211,-0.305176,0.072454,-0.025746,8.235274,4.948094
22.180251,0.228882,-0.213623,0.003789,-0.037722,8.220904,4.994199
22.195862,0.381470,-0.236511,0.011418,-0.019160,8.203541,4.973841
22.211405,0.175476,-0.419617,-0.011470,-0.050295,8.223300,4.976835
22.227134,0.152588,-0.312805,0.034307,-0.047900,8.214917,4.991205
22.242946,0.320435,-0.343323,0.026677,-0.021555,8.202942,4.995396
22.258771,0.267029,-0.267029,0.118230,-0.043709,8.237670,4.973242
22.274613,0.335693,-0.297546,-0.003840,-0.025148,8.191566,4.969650
22.290564,0.495911,-0.366211,-0.019099,-0.052690,8.178991,4.991205
22.306467,0.305176,-0.137329,0.034307,-0.004191,13.494139,6.139616
22.322829,-4.425049,1.083374,-1.194026,-0.107177,11.329639,11.922391
22.339279,52.993774,2.304077,-7.221248,0.573008,13.821658,10.925465
22.355222,124.679565,-4.501343,-8.853938,0.865201,11.914024,5.737852
22.370959,112.686157,-2.906799,-13.050105,-0.946631,9.729168,6.650953
22.386711,130.722046,-3.822327,-12.805964,-0.273032,7.783813,6.302478
22.402604,133.720398,-6.484985,-14.987971,0.975372,8.083790,5.965978
22.418513,158.256531,-6.813049,-16.140009,-1.442999,7.703580,4.723561
22.434250,170.692444,-7.339478,-14.743831,0.176034,9.204060,5.512720
22.450042,187.202454,-5.920410,-14.766719,-1.519640,8.538244,4.239169
22.465649,200.775146,-9.124756,-10.265376,-0.423918,5.127737,3.523657
22.481194,208.854675,-3.036499,-7.808711,-1.105301,3.706892,3.679932
22.496765,202.972412,-6.759644,-3.330256,-0.904719,2.869832,0.655621
22.512315,187.309265,-12.390137,1.354192,-0.935255,0.117955,-0.039534
22.528022,127.258301,-4.234314,8.083318,-0.810714,-0.390388,0.439470
22.543848,66.146851,0.488281,6.641362,-0.554447,-3.432063,1.072354
22.560251,67.977905,3.173828,9.021733,0.375419,2.030977,1.653745
22.576011,109.802246,-4.615784,16.788458,0.372426,8.883726,3.951168
22.591687,164.787292,31.280518,43.628666,-3.589535,19.617605,-14.182124
22.607350,109.649658,8.651733,17.353033,0.462838,15.122153,-10.372846
22.623302,140.594482,-3.974915,-8.510615,1.954336,3.103945,-0.935870
22.639006,79.460144,-17.265320,21.854376,0.653840,-6.056406,7.947856
22.654651,55.152893,-35.469055,-28.667475,-3.445235,19.609222,-11.722439
22.670326,91.247559,65.132141,0.370000,0.153880,10.124347,-1.126873
22.685968,57.098389,39.405823,10.402654,4.910389,5.634882,-8.121527
22.701552,78.880310,-9.391785,-18.093134,2.515369,11.460169,-15.955636
22.717210,121.749878,-2.525330,6.183599,-4.518204,7.788005,-7.036583
22.732795,85.403442,29.457092,6.618474,-0.625100,3.668571,-2.202835
22.748428,87.509155,9.925842,-5.352046,-1.184337,9.587862,-5.002014
22.764088,95.527649,11.680603,-8.770015,-2.014211,8.270002,-5.543887
22.779990,83.122253,13.320923,-8.731868,1.330433,6.464158,-6.000139
22.795584,84.892273,7.598877,-3.063228,1.543590,8.058642,-7.425175
22.811194,75.302124,2.143860,-3.292109,0.078437,6.206693,-5.322947
22.827045,70.549011,4.226685,0.339482,0.080233,7.796986,-7.634739
22.842975,69.854736,-2.647400,-2.651240,-0.514929,6.443800,-5.739081
22.858966,66.673279,-1.113892,1.483892,-0.164658,7.340136,-6.856358
22.874789,69.946289,-6.080627,1.895879,-0.043709,6.350993,-6.239042
22.890604,67.466736,-5.104065,2.376531,-0.161664,6.659352,-7.004251
22.906428,63.934326,-6.538391,1.934026,0.459844,6.156996,-6.831210
22.922168,60.050964,-7.034302,2.384160,0.400567,6.561156,-7.023411
22.938018,57.945251,-8.155823,1.651738,0.073048,6.402486,-6.674935
22.953618,58.006287,-5.096436,0.186895,-0.390388,6.653963,-6.865339
22.969206,61.096191,-3.486633,0.362371,-0.286804,6.288124,-6.688707
22.984802,63.568115,2.861023,5.832646,-0.971180,6.066585,-10.236928
23.000482,44.288635,-7.385254,-2.727534,0.909509,3.451223,-6.671942
23.016075,47.279358,1.220703,0.484441,-0.836461,5.892946,-7.685035
23.031595,47.142029,1.396179,-3.376033,-1.037642,6.415060,-8.490959
23.047187,43.899536,-0.465393,0.209783,0.141306,5.278623,-7.826940
23.062737,42.617798,0.686646,0.240300,-0.246687,4.998406,-8.147274
23.078386,40.405273,-1.876831,0.934575,-0.541873,5.052294,-8.661005
23.094104,34.217834,0.114441,-0.400569,0.432900,4.677473,-8.377794
23.109875,29.548645,0.419617,-0.530269,-0.008383,4.646338,-8.602327
23.125662,25.901794,0.282288,-0.080134,-0.085622,4.770879,-8.577180
23.141455,22.949219,-0.144958,-0.751521,-0.039518,4.749922,-8.652622
23.157267,20.797729,-0.091553,-0.278499,0.004191,4.591851,-8.683758
23.173096,17.517090,-0.282288,-0.316646,0.050295,4.452940,-8.633463
23.188831,13.359070,-0.434875,-0.125911,-0.041913,4.431385,-8.837638
23.204586,8.956909,-0.892639,-0.309016,-0.199385,4.357738,-8.695733
23.220221,4.653931,-0.854492,0.347112,-0.250878,4.469705,-8.786744
23.235844,1.243591,-1.144409,0.774358,-0.149689,4.609814,-8.763392
23.251513,-1.861572,-0.816345,0.598882,0.028141,4.481081,-8.696332
23.268038,-0.061035,-1.228333,0.575994,-0.532892,2.354903,-8.675375
23.283753,-21.926880,-8.865356,7.030461,-1.312471,-1.870510,-14.395880
23.299311,-121.711731,6.027222,3.993962,-0.507145,-3.644022,-8.446053
23.315116,-182.525635,-7.003784,-0.003840,0.004191,4.688251,-10.534510
23.331101,-169.631958,0.488281,0.492070,1.096919,5.575006,-7.468286
23.347791,-165.039062,-7.568359,2.963994,-0.402363,8.159832,-7.840711
23.363492,-150.215149,-5.142212,1.911138,-1.775907,13.053455,-8.213736
23.379151,-137.680054,-11.604309,-5.779292,-1.729803,8.891510,-5.838475
23.394850,-110.565186,-6.446838,1.789067,1.091530,7.152127,-5.087636
23.410762,-64.315796,-0.938416,7.198308,-0.697549,11.156600,-7.018620
23.426604,-26.992798,-2.647400,0.247930,1.152004,10.916499,-2.987204
23.442495,15.014648,-6.958008,-0.141169,0.440684,10.230326,1.117261
23.458350,79.338074,-8.079529,-0.774409,-0.241897,10.481204,0.250264
23.474271,101.860046,-7.095337,0.133489,0.492775,11.020083,-1.556779
23.490174,95.954895,-9.178162,3.192876,-0.911305,7.501800,-2.160922
23.506113,83.618164,-3.150940,2.490972,0.068258,6.910829,-3.776363
23.522511,46.401978,-4.364014,-3.269221,0.220941,6.023474,-3.118930
23.538097,16.281128,-3.509521,-0.209834,-0.250280,6.273155,-3.879349
23.554091,-8.415222,0.473022,-0.209834,-0.671204,6.155799,-4.832567
23.569787,-22.041321,0.373840,-1.018550,0.031734,7.513176,-5.000218
23.585360,-23.742676,0.434875,-2.903010,-0.316143,8.465197,-5.484012
23.601044,-11.108398,3.639221,-2.788569,-0.132924,7.846084,-5.920504
23.617169,14.022827,3.890991,-3.109004,-0.112566,9.144783,-6.013311
23.632751,28.259277,3.829956,-2.162959,-0.165256,7.486232,-5.718125
23.648325,45.791626,2.273560,-1.071956,-1.806443,9.999805,-10.565644
23.663960,47.447205,16.235352,6.618474,1.618434,7.799980,-8.375400
23.679547,51.124573,5.821228,0.537847,-0.793949,5.838459,-7.010238
23.695306,70.281982,1.266479,-9.182002,-0.900527,7.227570,-8.555624
23.711157,78.903198,4.219055,-0.896479,-0.512534,7.657476,-8.329894
23.726964,86.235046,2.052307,3.414128,0.438887,6.997049,-6.697688
23.742730,92.636108,-1.655579,-2.964046,0.001198,7.633526,-7.028201
23.758605,86.982727,-2.143860,-3.574397,-0.490380,6.648574,-5.822907
23.774440,81.954956,1.556396,0.980352,0.490380,5.767806,-5.807340
23.790313,76.461792,0.411987,-2.422359,0.714913,5.551655,-6.459383
23.806144,68.923950,0.877380,-2.361323,0.309556,5.098997,-6.844383
23.821974,59.066772,3.128052,-0.713374,-0.593965,4.690646,-7.978425
23.837699,59.844971,2.006531,-1.621272,-0.001198,4.167334,-9.125639
23.853524,62.080383,-0.312805,-1.598384,-0.139510,3.960165,-9.146595
23.869365,73.867798,-1.037598,0.942205,0.635878,4.828360,-8.885538
23.885074,88.317871,-0.617981,-0.362422,-0.307161,4.802014,-10.216571
23.900637,99.494934,-2.174377,1.270269,-0.254471,4.012257,-9.106479
23.916228,106.575012,0.404358,-0.637080,-0.387993,3.984115,-8.868175
23.931974,107.658386,-1.663208,0.232671,-0.420326,3.414100,-8.694535
23.947782,107.688904,-0.434875,-0.041987,0.017963,3.427273,-8.731658
23.963372,100.837708,0.724792,-1.255061,0.387993,2.617158,-7.488044
23.979060,95.848083,0.648499,-2.056148,0.195194,3.194956,-8.560414
23.994791,90.965271,2.777100,-2.323176,-0.160466,2.587220,-8.359832
24.010625,86.982727,0.755310,-3.177669,0.303569,2.583627,-9.237007
24.026416,92.338562,0.503540,-5.023982,0.475411,2.308200,-10.426733
24.042289,94.711304,2.952576,-4.306819,0.074844,0.726888,-10.678809
24.058112,101.852417,0.862122,-1.201655,-0.589175,0.447270,-10.112986
24.074123,109.596252,-1.121521,-3.490474,0.318538,0.041913,-10.601570
24.089979,116.348267,0.091553,-3.116633,-0.311353,0.219743,-9.850731
24.105761,117.492676,2.418518,-1.491572,-0.313149,0.171244,-9.418430
24.121433,113.441467,-1.167297,-1.186396,0.382604,-0.542472,-8.864582
24.137073,113.220215,0.633240,-3.101375,0.059875,-0.707130,-9.908212
24.152727,108.558655,0.854492,-1.537349,0.150886,-0.992137,-8.977747
24.168362,103.012085,-1.564026,-1.720454,-0.241897,-1.590293,-8.817280
24.183933,100.456238,0.366211,-1.232173,-0.628693,-2.109413,-9.411245
24.199499,107.078552,-1.586914,-1.308467,0.632884,-2.278262,-11.496110
24.215325,108.146667,0.892639,-2.956416,-0.505349,-2.553091,-10.151306
24.230893,112.800598,-0.755310,-1.468684,-0.326321,-3.076403,-9.778881
24.246662,117.286682,-0.839233,-2.613093,-0.001198,-3.308719,-8.993913
24.262775,118.736267,-1.358032,-0.652339,-0.131127,-3.784730,-9.341789
24.278434,116.691589,-1.296997,-0.530269,0.013771,-3.737428,-8.234692
24.294091,113.151550,-0.755310,-2.071406,0.560435,-3.724255,-8.556223
24.309720,103.866577,-2.426147,-1.323726,-0.313748,-4.799619,-8.258043
24.325607,103.187561,0.343323,1.476262,-0.549657,-4.403244,-8.825064
24.341460,103.355408,-1.373291,3.070806,0.055085,-5.284611,-9.116059
24.357508,106.941223,0.877380,-0.202205,-0.220342,-6.079158,-9.580094
24.373533,110.664368,-0.022888,0.591252,-0.179626,-5.885162,-8.783750
24.389368,110.427856,0.297546,2.017949,0.339494,-6.225853,-8.386776
24.405373,109.123230,0.251770,0.293706,0.455054,-6.779702,-7.268900
24.421101,104.141235,-1.190186,0.484441,-0.476609,-7.034173,-7.543130
24.436792,99.067688,-2.113342,0.919316,-0.117356,-7.287446,-7.593425
24.452614,94.963074,0.175476,0.492070,0.344284,-7.037765,-6.714453
24.468450,92.796326,-0.953674,-0.217463,-0.505948,-7.586823,-7.479063
24.484089,93.170166,-0.801086,-1.216914,-0.036524,-8.113728,-7.106039
24.499747,92.453003,0.122070,-0.087764,0.664618,-8.080197,-5.794765
24.515385,91.209412,-0.144958,-0.995662,0.117356,-7.838899,-5.731297
24.531269,92.498779,-0.686646,-1.880671,0.141905,-8.320896,-5.728903
24.547057,86.364746,-1.457214,-0.827815,-0.277822,-8.833431,-5.922300
24.562654,81.344604,-0.709534,-0.705745,-0.567620,-8.343649,-4.975669
24.578431,74.691772,-0.587463,-0.438716,-0.010179,-8.642428,-4.798438
24.594232,82.015991,7.743835,-12.416865,1.777104,-10.554852,-1.866934
24.610266,77.194214,-6.553650,-9.235408,0.282014,-10.577603,-4.276922
24.626112,67.291260,-12.031555,-18.016840,-1.431623,-9.945318,-3.955391
24.641989,53.894043,-13.168335,-18.421198,-0.030536,-9.752520,-3.451239
24.657906,46.737671,-13.397217,-21.900202,-1.457369,-16.058006,-4.049994
24.673724,36.796570,-13.275146,-18.260981,0.175435,-7.985594,-1.936389
24.689463,12.290955,-10.536194,-8.708980,0.479004,-12.603790,-0.558654
24.705138,2.876282,-4.722595,-2.529170,0.838257,-8.141270,-2.896792
24.720729,-11.283875,3.273010,-1.377131,0.513133,-8.765173,-2.997982
24.736328,-22.308350,3.707886,6.031011,1.931583,-10.029743,-3.324303
24.751972,-29.235840,3.379822,8.060430,0.474214,-8.714278,-4.203275
24.767578,-32.127380,1.457214,8.563970,0.767604,-9.177715,-5.260077
24.783093,-32.196045,7.385254,12.523625,0.884361,-8.576565,-5.207986
24.798709,-28.060913,5.004883,12.828801,-0.952619,-8.729247,-5.751655
24.814319,-25.115967,5.584717,15.949224,-0.202978,-9.433383,-5.834283
24.829938,-20.820618,2.708435,11.768315,-1.293909,-9.875264,-4.443974
24.845788,-29.586792,3.616333,10.433171,0.328118,-7.925718,-4.422420
24.861646,-34.828186,7.453918,8.327458,0.832868,-9.920171,-5.452877
24.877633,-32.546997,-0.099182,0.232671,-0.168250,-7.922126,-5.432519
24.893883,-39.428711,-4.035950,-3.139522,-0.268841,-9.629176,-5.109790
24.910590,-36.079407,-1.739502,-2.780940,-0.772394,-7.683223,-5.422340
24.926623,-40.832520,1.266479,-1.773860,-1.061592,-8.907677,-5.248102
24.942342,-40.176392,-0.946045,-3.955867,0.227527,-8.177794,-5.575621
24.958288,-42.434692,-2.960205,-7.793452,0.076042,-8.595126,-5.286423
24.974043,-44.319153,-6.378174,-11.692073,0.491578,-8.146659,-5.578016
24.989769,-46.585083,-6.477356,-11.371638,0.004191,-8.207732,-5.322348
25.005556,-46.684265,-3.501892,-7.427241,-0.074246,-7.679630,-6.325263
25.021288,-46.791077,-1.770020,-5.001094,0.076042,-7.979008,-6.107914
25.036949,-45.295715,-1.556396,-3.017451,0.346080,-7.639513,-6.115698
25.052621,-45.883179,-3.875732,-2.407100,0.239502,-7.536528,-6.636016
25.068300,-47.492981,-1.266479,-0.019099,-0.155676,-7.567064,-6.559974
25.083857,-52.070618,0.999451,2.895329,0.022154,-7.423962,-6.391126
25.099475,-52.787781,1.296997,4.657720,-0.234113,-7.274872,-6.656374
25.115062,-53.932190,1.098633,5.588506,-0.107776,-7.291038,-6.921622
25.130662,-51.963806,1.304626,5.023931,0.054487,-7.444918,-7.243752
25.146299,-50.262451,0.930786,2.994512,0.228126,-7.018605,-7.147353
25.162268,-49.896240,-0.930786,4.215215,-0.435295,-6.793473,-7.271295
25.178735,-52.978516,-0.648499,3.993962,-0.089813,-6.644383,-7.338356
25.195098,-54.672241,0.885010,3.406499,0.249681,-6.585705,-7.228185
25.210883,-55.580139,-0.144958,0.354741,0.164059,-6.682105,-7.476668
25.226636,-54.763794,-2.143860,-0.858333,-0.440684,-6.513855,-7.592228
25.242420,-54.580688,-2.586365,0.797246,-0.067061,-6.413862,-7.773052
25.258091,-56.076050,0.190735,1.766179,0.131127,-6.027067,-7.637135
25.274055,-56.777954,-0.061035,0.568364,-0.320334,-5.819898,-8.034708
25.289824,-55.648804,-0.999451,2.071355,-0.325723,-5.729486,-8.404738
25.305500,-54.275513,-0.625610,2.300237,0.191602,-5.547464,-8.103564
25.321190,-53.939819,0.549316,0.812505,-0.162263,-5.562433,-8.452639
25.336815,-51.490784,-0.915527,1.644109,-0.520917,-5.281018,-8.524489
25.352460,-52.330017,-0.549316,1.361821,0.387993,-5.197791,-8.462817
25.368113,-53.321838,0.801086,-1.201655,-0.044308,-4.867279,-8.289777
25.383732,-53.672791,-0.648499,0.041936,-0.585582,-4.869673,-8.856798
25.399312,-54.130554,-0.823975,0.202153,0.395777,-4.466113,-8.632864
25.414958,-54.130554,0.305176,-1.796748,-0.089813,-4.176315,-8.875360
25.430698,-53.718567,0.915527,0.614141,-0.405956,-4.376898,-9.193298
25.447253,-51.063538,-1.350403,1.392339,0.098196,-4.295467,-9.232816
25.463446,-49.766541,-0.328064,0.644658,-0.200583,-4.099076,-9.003493
25.479658,-49.301147,-0.267029,1.941655,-0.210762,-3.687133,-8.966371
25.495777,-48.690796,0.373840,0.980352,-0.163460,-3.429668,-8.803509
25.511481,-49.133301,-0.686646,0.255559,0.193398,-3.476970,-9.050196
25.527200,-49.362183,0.679016,-0.453975,-0.004790,-3.362009,-9.345981
25.543137,-48.728943,-0.373840,-0.125911,-0.191003,-3.133284,-9.197490
25.559046,-47.470093,-1.274109,0.736211,-0.104782,-3.265010,-9.112467
25.575041,-46.386719,-0.251770,-0.629451,0.200583,-2.968028,-9.292093
25.590956,-45.738220,0.587463,-0.431086,-0.146096,-2.771038,-9.372925
25.606843,-43.815613,0.167847,-0.125911,-0.089813,-2.910547,-9.861508
25.622610,-42.472839,-0.389099,-0.614192,0.066462,-2.314786,-9.572909
25.638287,-41.908264,0.434875,1.636479,-0.355660,-2.156715,-9.684876
25.653950,-40.710449,-0.656128,0.659917,0.405956,-2.301614,-9.883064
25.669605,-40.466309,0.183105,-1.049067,-0.260458,-2.041754,-9.658531
25.685207,-39.352417,-0.373840,0.507329,-0.058678,-1.951342,-9.707030
25.700859,-37.307739,-0.373840,-1.018550,0.221539,-1.692081,-9.993235
25.716423,-36.613464,0.190735,-1.064326,-0.074844,-1.674717,-9.780078
25.731984,-35.842896,-0.473022,-0.003840,-0.162861,-1.665137,-9.606440
25.747622,-34.912109,-0.907898,0.637029,-0.135319,-1.507665,-9.692061
25.763326,-32.531738,-1.342773,1.071904,0.062271,-1.265768,-9.849534
25.779158,-31.806946,0.083923,1.308416,-0.128732,-1.723815,-10.140529
25.794994,-30.929565,-1.029968,1.369451,-0.010778,-1.232238,-9.560934
25.810828,-30.014038,-0.938416,1.476262,-0.219144,-1.014291,-9.817800
25.826691,-28.343201,-0.900269,1.483892,0.110770,-0.725691,-9.989642
25.842522,-27.046204,0.198364,-0.492122,-0.190404,-0.886157,-9.820793
25.858541,-26.054382,0.190735,-0.263240,-0.162861,-0.767005,-9.771097
25.874584,-24.604797,-0.572205,0.194524,-0.115560,-0.698148,-9.760918
25.890534,-23.063660,-0.228882,-0.301387,0.105381,-0.560435,-9.774091
25.906477,-21.713257,0.030518,-0.698115,-0.018561,-0.504750,-9.747147
25.922210,-20.294189,0.434875,-0.507380,-0.142504,-0.439486,-9.700443
25.937926,-18.630981,-0.869751,0.652288,-0.135319,-0.347877,-9.778282
25.953692,-16.845703,-0.175476,0.263188,0.295785,-0.287402,-9.775288
25.969493,-15.472412,-0.396729,-0.156428,-0.021555,-0.287402,-9.742356
25.985132,-14.503479,-0.236511,0.377629,-0.188608,-0.283810,-9.719006
26.000727,-12.847900,-1.274109,0.629399,-0.071851,-0.208965,-9.778881
26.016292,-11.520386,-0.442505,0.553105,-0.050295,-0.159269,-9.768702
26.031920,-10.520935,-0.289917,0.339482,-0.112566,-0.155078,-9.747746
26.047747,-9.651184,-0.274658,0.164006,-0.215552,-0.037722,-9.734572
26.063834,-8.346558,-0.450134,0.072454,-0.086819,-0.018561,-9.733376
26.079859,-6.912231,0.236511,-0.309016,-0.043110,-0.780178,-9.782474
26.095976,-5.523682,0.244141,-0.469233,-0.040117,0.335303,-10.232737
26.111730,-4.066467,-0.236511,-0.492122,-0.192200,0.199984,-9.932162
26.127665,-1.914978,-0.419617,-0.057246,-0.019759,0.163460,-9.841750
26.143473,-0.274658,-0.343323,0.102971,-0.147892,0.112566,-9.794448
26.159295,1.937866,-0.053406,-0.003840,-0.054487,0.041913,-9.768103
26.175167,3.540039,-0.724792,0.400518,-0.135917,0.068258,-9.566921
26.191110,4.669189,-0.534058,0.575994,-0.043110,0.035327,-9.709425
26.207036,6.103516,-0.526428,0.202153,-0.082029,-0.150287,-9.717209
26.222958,7.278442,-0.099182,0.095342,-0.136516,-0.018561,-9.763912
26.238844,8.453369,-0.160217,-0.309016,-0.062869,-0.101190,-9.802232
26.254582,9.864807,0.045776,-0.118281,-0.120350,-0.204774,-9.824386
26.270368,11.459351,-0.144958,-0.156428,-0.041314,-0.213755,-9.818997
26.286198,13.000488,-0.320435,-0.179316,-0.084424,-0.211959,-9.808819
26.301850,14.122009,-0.144958,0.232671,-0.074246,-0.240699,-9.741757
26.317474,15.007019,-0.534058,0.408147,-0.055085,-0.290396,-9.730980
26.333036,15.823364,-0.434875,0.278447,-0.037123,-0.299377,-9.708227
26.348632,16.792297,-0.419617,0.232671,-0.073048,-0.353265,-9.743554
26.364248,17.433167,-0.350952,-0.072505,-0.057480,-0.435894,-9.814806
26.380114,19.027710,-0.152588,-0.301387,-0.133522,-0.531694,-9.842349
26.396011,20.980835,-0.129700,-0.026729,-0.168250,-0.529299,-9.878274
26.411854,22.789001,-0.534058,-0.141169,0.002994,-0.673001,-9.916595
26.427726,24.650574,-0.167847,-0.629451,0.092208,-0.747845,-9.853725
26.443582,25.581360,0.228882,-0.354792,-0.105381,-0.872386,-9.759721
26.459517,26.153564,-0.404358,0.308965,-0.186812,-0.949625,-9.708227
26.475367,26.679993,-0.556946,0.308965,0.006586,-1.007106,-9.726191
26.491196,27.656555,-0.099182,-0.492122,0.123942,-1.019081,-9.783670
26.506955,27.832031,0.183105,-0.522639,-0.178429,-1.187930,-9.757924
26.522636,29.022217,-0.801086,0.743840,-0.004790,-1.286724,-9.719006
26.538266,29.975891,-1.243591,0.453923,0.153880,-1.376537,-9.731579
26.553951,31.036377,0.198364,-0.209834,-0.057480,-1.532812,-9.775288
26.569528,32.569885,-0.076294,0.171636,-0.208965,-1.614842,-9.738764
26.585435,33.409119,-0.061035,-0.209834,-0.287402,-1.717828,-9.624402
26.601023,34.454346,-0.137329,0.148748,0.132924,-1.785487,-9.424417
26.616620,34.385681,1.091003,-1.163508,-0.107776,-1.984872,-9.468127
26.632815,35.614014,0.503540,-1.209285,-0.031734,-1.992656,-9.473516
26.648662,36.216736,0.038147,-1.422908,-0.010179,-2.084865,-9.513632
26.664269,36.636353,0.442505,-0.957515,0.164059,-2.256108,-9.580094
26.679886,37.017822,-0.900269,-0.583674,0.220342,-2.452500,-9.526805
26.695813,37.376404,-0.541687,-1.003291,-0.002395,-2.558480,-9.426813
26.711571,38.757324,-1.205444,0.934575,-0.229922,-2.492018,-9.476509
26.727421,39.512634,-0.953674,0.720952,0.029938,-2.777025,-9.429208
26.743369,40.435791,-0.793457,0.514959,-0.247885,-2.923121,-9.432201
26.759395,40.122986,-0.091553,1.415227,0.046703,-3.306324,-9.460343
26.775437,41.419983,-0.213623,-0.545527,0.152084,-3.132087,-9.291494
26.791269,41.191101,0.679016,-1.346614,-0.181423,-3.199147,-9.193897
26.807037,40.618896,0.228882,0.446294,-0.135319,-3.322491,-9.068757
26.822827,40.580750,-0.976562,1.056646,0.049697,-3.457211,-9.238804
26.839245,38.131714,-0.335693,-0.598933,0.108375,-4.296665,-12.212819
26.855038,35.728455,8.148193,-1.125361,-0.104183,-4.448749,-10.284828
26.871113,68.603516,4.135132,-0.125911,-0.523911,-5.445676,-10.672822
26.887213,83.656311,-4.425049,-3.513362,-0.421523,-4.705615,-10.190824
26.902916,84.159851,-2.883911,-3.269221,0.270637,-4.987030,-10.421944
26.918547,93.040466,2.822876,-0.492122,0.167053,-5.509144,-10.151306
26.934561,108.360291,1.487732,-0.141169,0.005389,-5.783373,-10.053110
26.950192,115.386963,-2.906799,-0.362422,0.261656,-5.967191,-9.061572
26.965736,116.363525,-2.952576,0.171636,0.215552,-5.895340,-8.413719
26.981399,122.375488,-0.274658,2.330754,-0.320334,-6.295309,-8.500539
26.997185,133.438110,-1.678467,3.559087,-0.585582,-6.142027,-8.443657
27.012896,141.510010,-2.601624,3.520940,-0.004790,-6.230044,-9.005888
27.028670,143.882751,-1.075745,4.734014,0.029938,-5.740862,-7.653301
27.044568,151.451111,-1.716614,7.099126,0.095801,-6.410270,-6.877913
27.060507,156.677246,-0.778198,6.038640,0.122745,-6.634204,-6.984491
27.076420,162.185669,0.244141,4.970525,-0.251477,-6.624025,-7.052151
27.092691,175.033569,1.434326,6.404851,-0.341889,-6.409671,-6.801272
27.109298,182.838440,0.640869,7.038091,-0.252675,-7.240743,-6.409088
27.124975,192.924500,0.335693,5.756352,0.716710,-6.849157,-4.005686
27.140649,193.687439,-2.090454,5.870793,0.032333,-4.745731,-3.654816
27.156286,173.377991,1.159668,5.886052,0.192200,-3.736829,-3.672778
27.172361,141.746521,0.946045,9.738896,-0.267643,-6.923403,-4.911004
27.188413,123.588562,0.152588,3.795598,-0.944835,-3.699108,-2.498021
27.204139,100.158691,5.737305,4.314397,-0.699944,-5.030140,-3.750617
27.219794,80.543518,4.104614,7.900212,-0.125739,-6.079158,-3.447048
27.236003,67.466736,2.212524,6.183599,-0.704735,-9.219627,-4.624799
27.252012,87.448120,-2.868652,11.295293,-0.568817,-10.122550,-3.858991
27.268119,125.350952,-0.663757,8.907292,-0.160466,-10.209370,-3.127313
27.283740,151.618958,-0.648499,4.268620,0.931064,-8.754395,-0.557457
27.299315,167.938232,-4.768372,-1.407649,0.586181,-8.256830,-2.856077
27.315014,172.920227,-8.438110,-4.657771,-0.604144,-7.771838,-0.770613
27.330786,169.975281,-8.888245,-4.657771,-0.528102,-6.774911,0.058063
27.346688,181.694031,-6.790161,-4.550960,0.161664,-7.514374,-0.345497
27.362498,195.556641,-19.279480,-37.120846,1.575324,-19.617605,4.718173
27.378341,124.847412,4.768372,-12.172725,-1.294508,-12.509786,2.098021
27.394539,173.881531,-25.367737,20.557379,4.300258,2.680027,1.708232
27.410431,127.006531,3.303528,-35.663631,5.794151,9.338181,-0.474828
27.426236,112.121582,-41.229248,5.901311,3.447631,0.977767,18.120104
27.442300,179.389954,-23.811340,22.075628,6.292914,-3.927832,1.210667
27.458195,97.434998,-14.816284,-1.293208,-0.022154,-6.389912,9.125009
27.473833,99.601746,5.752563,3.871892,-3.640430,-9.359138,9.496237
27.489504,99.792480,-8.804321,1.552556,-0.728086,-6.924002,4.715777
27.505168,99.945068,-12.321472,3.589604,-1.213077,-7.267687,5.844430
27.520822,93.032837,5.477905,4.947637,-0.600551,-7.855664,7.708953
27.536431,91.545105,-5.599976,-0.820186,-1.120270,-6.424640,7.616146
27.551954,84.289551,2.662659,2.529119,-0.292791,-8.098759,7.015595
27.567515,78.208923,1.007080,-2.246882,0.494572,-6.752159,6.740168
27.583101,72.044373,6.774902,-0.377681,0.120350,-7.190447,7.003620
27.598684,63.201904,4.066467,-0.309016,0.192200,-6.795269,7.244918
27.614451,59.120178,6.515503,-1.277949,0.060474,-6.836583,7.159296
27.630219,52.513123,5.599976,-1.766230,0.040715,-7.114406,7.104211
27.646097,50.186157,5.889893,-0.812556,-0.198787,-6.853348,6.937158
27.661898,46.829224,3.601074,-0.309016,-0.340093,-7.117399,7.211987
27.677828,46.440125,3.211975,0.469182,-0.146096,-6.773115,7.099421
27.693887,44.815063,2.563477,0.675176,0.025746,-6.940168,7.495797
27.709802,43.167114,1.098633,1.331304,0.073647,-6.590495,7.321559
27.725590,32.684326,-11.512756,-1.667048,-0.943039,-6.817423,9.812379
27.741425,25.428772,-11.192322,-3.032710,-0.409548,-5.586383,7.590400
27.757054,14.129639,1.770020,-1.514460,-1.678310,-6.325845,9.442947
27.772655,12.413025,-4.486084,0.041936,-0.389191,-5.704937,8.023299
27.788305,6.874084,-0.946045,0.942205,0.013771,-6.095923,10.299766
27.804350,-5.851746,3.150940,3.688787,0.096998,-7.447313,13.386946
27.819974,-34.561157,-4.325867,-3.101375,-1.207090,0.064666,6.761723
27.835584,-131.660461,-18.989563,7.785771,-0.364642,-6.542594,5.861794
27.851535,-165.489197,12.069702,8.457158,1.592688,-9.092691,10.809905
27.867239,-147.247314,-10.482788,-2.399470,-2.189048,-7.743098,6.418038
27.882856,-140.022278,-1.777649,-0.652339,0.723296,-6.086942,7.775415
27.898564,-122.871399,-2.571106,-3.376033,-0.497565,-9.413026,7.579023
27.914488,-119.377136,4.676819,-0.362422,1.043031,-7.033574,8.968734
27.930262,-96.015930,8.743286,-5.092647,-0.281415,-9.183104,8.684924
27.946006,-65.635681,7.850647,1.262639,-0.901725,-5.485792,5.151671
