Timestamp,Gyro_X_dps,Gyro_Y_dps,Gyro_Z_dps,Accel_X_mps2,Accel_Y_mps2,Accel_Z_mps2
0.005517,0.305176,-0.289917,0.080083,0.007185,8.566386,4.338562
0.021233,0.396729,-0.244141,-0.003840,-0.062869,8.556208,4.331377
0.037048,0.427246,-0.183105,0.019048,-0.057480,8.562195,4.352932
0.052682,0.244141,-0.343323,0.049565,-0.005988,8.546627,4.311618
0.068267,0.297546,-0.320435,-0.003840,-0.022753,8.581954,4.325988
0.084538,0.396729,-0.160217,0.026677,-0.000599,8.587941,4.342753
0.100230,0.289917,-0.411987,-0.019099,-0.142504,8.537646,4.340358
0.115840,0.228882,-0.282288,0.034307,-0.043709,8.562195,4.312816
0.131368,0.389099,-0.297546,0.026677,-0.137115,8.569979,4.317007
0.146910,0.411987,-0.282288,-0.041987,-0.038320,8.539442,4.339161
0.162489,0.152588,-0.228882,0.019048,-0.025746,8.579558,4.335568
0.178057,0.251770,-0.259399,0.072454,-0.021555,8.564590,4.330179
0.193821,0.282288,-0.213623,0.026677,-0.011376,8.576565,4.328383
0.209756,0.328064,-0.289917,0.041936,0.002395,8.576565,4.306828
0.225646,0.328064,-0.205994,0.003789,-0.015568,8.532257,4.331976
0.241579,0.259399,-0.274658,-0.026729,-0.029339,8.572373,4.314013
0.257589,0.366211,-0.373840,-0.141169,-0.022753,8.561596,4.321198
0.273701,0.358582,-0.289917,0.026677,0.004790,8.559800,4.339161
0.289780,0.480652,-0.236511,-0.011470,-0.006586,8.571177,4.325389
0.305751,0.259399,-0.190735,0.041936,-0.135319,8.571774,4.306229
0.321694,0.297546,-0.175476,-0.049617,-0.016166,8.566985,4.340957
0.337552,0.495911,-0.114441,-0.057246,-0.003593,8.548424,4.319402
0.353534,0.419617,-0.282288,0.049565,-0.019759,8.577164,4.349339
0.369409,0.236511,-0.198364,0.041936,0.007185,8.556208,4.332574
0.385122,0.320435,-0.366211,0.003789,-0.015568,8.566386,4.331377
0.400798,0.305176,-0.251770,0.041936,-0.008981,8.562195,4.327186
0.416566,0.328064,-0.373840,0.049565,-0.013771,8.549023,4.325389
0.432225,0.366211,-0.244141,-0.003840,-0.052690,8.572972,4.318803
0.448015,0.228882,-0.251770,-0.011470,-0.008383,8.554411,4.333772
0.463575,0.335693,-0.251770,0.133489,-0.029938,8.561596,4.339161
0.479205,0.396729,-0.114441,0.019048,-0.027543,8.572373,4.324790
0.494828,0.328064,-0.305176,0.080083,-0.018561,8.555609,4.318803
0.510577,0.404358,-0.190735,0.049565,0.010179,8.568781,4.315210
0.526472,0.389099,-0.320435,-0.141169,-0.010778,8.575367,4.324790
0.542309,0.297546,-0.389099,-0.019099,0.007185,8.571774,4.352932
0.558104,0.495911,-0.335693,-0.049617,-0.029938,8.572373,4.333772
0.574011,0.289917,-0.358582,-0.080134,-0.041913,8.526868,4.343951
0.592927,0.419617,-0.282288,0.026677,-0.008383,8.527467,4.317605
0.608971,0.183105,-0.305176,0.095342,-0.005389,8.554411,4.327785
0.624906,0.305176,-0.289917,-0.041987,-0.003593,8.547825,4.354130
0.641314,0.358582,-0.312805,-0.095393,-0.019160,8.572373,4.323593
0.661906,0.335693,-0.396729,-0.049617,-0.007185,8.559800,4.326587
0.678379,0.274658,-0.328064,0.003789,-0.011376,8.563393,4.318204
0.696895,0.144958,-0.297546,-0.034358,-0.019160,8.569380,4.325389
0.712556,0.480652,-0.305176,0.026677,-0.039518,8.550220,4.326587
0.728738,0.328064,-0.297546,0.011418,-0.046104,8.447833,4.309822
0.744399,0.312805,-0.419617,0.072454,0.000000,8.539442,4.337963
0.760162,0.396729,-0.259399,0.102971,-0.002994,8.573571,4.321198
0.775793,0.358582,-0.221252,0.003789,-0.010778,8.561596,4.325988
0.791376,0.328064,-0.312805,0.034307,-0.009580,8.564590,4.324790
0.807008,0.328064,-0.152588,-0.057246,-0.016765,8.575966,4.336766
0.822925,0.282288,-0.411987,-0.125911,-0.009580,8.560398,4.314612
0.838582,0.396729,-0.274658,0.041936,-0.040117,8.553812,4.332574
0.854177,0.251770,-0.175476,0.087712,-0.007185,8.571177,4.329581
0.870016,0.312805,-0.404358,-0.026729,0.004790,8.540640,4.342155
0.885877,0.381470,-0.259399,-0.041987,-0.008981,8.578960,4.329581
0.901562,0.358582,-0.297546,-0.003840,0.013173,8.551417,4.334970
0.923490,0.549316,-0.267029,0.057195,-0.022753,8.563393,4.337963
0.939877,0.434875,-0.160217,-0.034358,-0.006586,8.545429,4.342753
0.955946,0.259399,-0.167847,0.110601,-0.027543,8.549023,4.317605
0.971690,0.419617,-0.122070,-0.072505,0.007784,8.430469,4.351735
0.987328,0.297546,-0.366211,-0.087764,-0.031734,8.553812,4.352932
1.003037,0.358582,-0.099182,0.080083,-0.011975,8.562195,4.321198
1.018610,0.328064,-0.335693,0.019048,0.005389,8.431067,4.339759
1.034251,0.175476,-0.259399,-0.011470,-0.022753,8.545429,4.322994
1.050281,0.343323,-0.198364,0.019048,0.007185,8.545429,4.338562
1.065959,0.251770,-0.396729,0.057195,-0.044308,8.577164,4.352932
1.081500,0.343323,-0.419617,0.049565,-0.005389,8.547825,4.330778
1.097465,0.495911,-0.152588,0.057195,-0.014969,8.580756,4.336167
1.113144,0.343323,-0.198364,0.102971,-0.013771,8.545429,4.312217
1.128904,0.427246,-0.205994,0.011418,0.018561,8.538843,4.354130
1.144629,0.198364,-0.152588,-0.057246,-0.033530,8.580157,4.339161
1.160368,0.305176,-0.221252,-0.064875,-0.145497,8.572972,4.351735
1.176165,0.373840,-0.190735,0.057195,-0.018561,8.560997,4.320600
1.191967,0.511169,-0.259399,0.156377,-0.023950,8.560997,4.333173
1.207837,0.411987,-0.160217,0.072454,-0.002994,8.551417,4.336766
1.223705,0.274658,-0.251770,-0.087764,-0.032333,8.562794,4.339161
1.239631,0.267029,-0.328064,0.011418,-0.030536,8.432864,4.322994
1.255353,0.427246,-0.289917,0.110601,-0.021555,8.552615,4.340358
1.271108,0.419617,-0.320435,0.057195,-0.017963,8.586743,4.336766
1.286763,0.335693,-0.183105,0.164006,0.007185,8.556806,4.312217
1.302393,0.389099,-0.282288,0.011418,-0.018561,8.546028,4.315809
1.318184,0.305176,-0.221252,0.064824,-0.028740,8.562195,4.343352
1.333933,0.251770,-0.259399,0.011418,-0.020358,8.560398,4.318204
1.349582,0.343323,-0.183105,-0.019099,-0.028740,8.550818,4.330179
1.365153,0.244141,-0.175476,0.026677,-0.024549,8.573571,4.322994
1.380814,0.373840,-0.320435,0.019048,-0.004790,8.572972,4.321797
1.396364,0.381470,-0.335693,-0.003840,-0.031135,8.575966,4.324192
1.412028,0.144958,-0.251770,-0.072505,-0.011975,8.562794,4.329581
1.427774,0.419617,-0.434875,0.034307,-0.028141,8.547825,4.331377
1.443527,0.427246,-0.083923,0.026677,-0.020358,8.547825,4.354130
1.459311,0.328064,-0.297546,-0.110652,-0.011975,8.561596,4.297248
1.475167,0.259399,-0.282288,0.041936,-0.029339,8.593330,4.331377
1.491123,0.381470,-0.259399,0.118230,-0.018561,8.551417,4.333772
1.506979,0.297546,-0.503540,0.003789,-0.009580,8.572972,4.325389
1.522669,0.503540,-0.144958,0.026677,-0.022753,8.559201,4.331377
1.538630,0.244141,-0.297546,0.110601,0.003593,8.576565,4.327785
1.554451,0.289917,-0.267029,0.072454,-0.017963,8.549621,4.332574
1.570906,0.442505,-0.167847,-0.057246,-0.008981,8.555010,4.324790
1.586818,0.274658,-0.419617,-0.026729,-0.012574,8.589738,4.349938
1.602621,0.434875,-0.259399,-0.034358,-0.032333,8.523275,4.325988
1.618468,0.312805,-0.282288,-0.019099,-0.010179,8.565188,4.305631
1.634371,0.282288,-0.251770,-0.049617,-0.025746,8.577164,4.366105
1.650207,0.511169,-0.122070,0.011418,-0.011376,8.534054,4.317605
1.666874,0.328064,-0.335693,0.049565,-0.034129,8.719069,4.324192
1.682753,0.251770,-0.343323,0.064824,-0.037123,8.552615,4.349339
1.698665,0.480652,-0.221252,0.019048,0.005988,8.558602,4.336167
1.714637,0.434875,-0.297546,-0.011470,-0.047900,8.549621,4.321198
1.730336,0.366211,-0.297546,0.095342,-0.011376,8.559201,4.315210
1.745990,0.320435,-0.213623,0.072454,-0.006586,8.553812,4.312816
1.761810,0.373840,-0.198364,-0.064875,-0.016765,8.571177,4.350537
1.777937,0.396729,-0.297546,0.011418,0.013173,8.571177,4.356524
1.793743,0.427246,-0.175476,0.003789,-0.035925,8.566386,4.348142
1.809601,0.320435,-0.183105,0.019048,0.127535,8.566985,4.337963
1.825429,0.396729,-0.381470,-0.064875,-0.034129,8.550220,4.322396
1.841300,0.320435,-0.343323,0.064824,-0.022154,8.587342,4.330778
1.857438,0.205994,-0.198364,-0.080134,-0.012574,8.549621,4.338562
1.873346,0.450134,-0.259399,-0.019099,-0.059277,8.563393,4.343352
1.889089,0.328064,-0.137329,0.026677,-0.004790,8.555609,4.332574
1.904857,0.373840,-0.221252,-0.034358,-0.003593,8.541239,4.330778
1.920456,0.213623,-0.221252,0.003789,0.014370,8.730445,4.345148
1.936043,0.091553,-0.366211,0.041936,0.005988,8.560997,4.336766
1.951606,0.419617,-0.221252,-0.034358,-0.028141,8.557405,4.327186
1.967134,0.366211,-0.320435,0.102971,-0.004191,8.451426,4.345148
1.982692,0.343323,-0.366211,0.011418,-0.021555,8.527467,4.348142
1.998242,0.434875,-0.083923,-0.110652,-0.003593,8.565787,4.331377
2.013849,0.381470,-0.274658,0.034307,-0.016765,8.728649,4.329581
2.029407,0.175476,-0.213623,-0.057246,0.000599,8.560997,4.330778
2.045082,0.305176,-0.373840,0.011418,0.002395,8.434061,4.339161
2.060967,0.434875,-0.213623,-0.019099,-0.004191,8.559800,4.352932
2.076714,0.312805,-0.259399,0.034307,-0.010778,8.547226,4.324192
2.092532,0.350952,-0.320435,-0.003840,-0.038919,8.576565,4.350537
2.109496,0.366211,-0.259399,0.011418,-0.002395,8.537646,4.299643
2.125527,0.495911,-0.320435,-0.011470,-0.019759,8.567584,4.313414
2.141433,0.167847,-0.289917,0.095342,0.001198,8.588540,4.354728
2.157216,0.335693,-0.411987,-0.026729,0.003593,8.543035,4.323593
2.173099,0.396729,-0.350952,0.034307,-0.013173,8.572373,4.331377
2.188910,0.267029,-0.305176,0.080083,-0.147294,8.574769,4.342753
2.204583,0.267029,-0.404358,0.041936,-0.028740,8.553213,4.325988
2.220217,0.328064,-0.289917,0.064824,-0.141306,8.547226,4.330778
2.235892,0.427246,-0.282288,-0.072505,-0.007784,8.547825,4.326587
2.251665,0.373840,-0.259399,0.011418,-0.010179,8.588540,4.321198
2.267278,0.297546,-0.183105,-0.057246,0.011376,8.538843,4.331377
2.282851,0.236511,-0.328064,-0.011470,-0.039518,8.581355,4.352334
2.298458,0.457764,-0.175476,0.049565,0.143701,8.550818,4.345148
2.314121,0.450134,-0.328064,-0.026729,-0.016166,8.557405,4.300840
2.330040,0.221252,-0.236511,0.110601,-0.010778,8.563992,4.337365
2.345957,0.320435,-0.167847,0.110601,0.014370,8.581355,4.344550
2.362350,0.305176,-0.343323,0.019048,-0.022753,8.574170,4.342753
2.378318,0.411987,-0.297546,-0.026729,-0.022753,8.543035,4.352932
2.394385,0.305176,-0.175476,0.072454,-0.043110,8.555609,4.343352
2.410233,0.358582,-0.297546,0.110601,-0.013173,8.555010,4.352932
2.426044,0.320435,-0.267029,-0.064875,0.000599,8.543633,4.324790
2.441889,0.305176,-0.167847,-0.049617,0.005988,8.594527,4.337963
2.457835,0.274658,-0.381470,0.072454,-0.020956,8.550220,4.315210
2.473712,0.381470,-0.213623,-0.019099,-0.031135,8.561596,4.329581
2.489496,0.267029,-0.312805,-0.034358,0.011376,8.577763,4.324790
2.505310,0.404358,-0.282288,-0.034358,-0.036524,8.559800,4.333772
2.520903,0.396729,-0.274658,-0.003840,-0.026345,8.582553,4.340957
2.536548,0.350952,-0.328064,0.011418,-0.043110,8.574769,4.321198
2.552142,0.419617,-0.328064,0.041936,-0.015568,8.565188,4.325389
2.567869,0.442505,-0.251770,0.034307,0.001796,8.560997,4.333173
2.583424,0.427246,-0.251770,-0.019099,-0.012574,8.548424,4.306229
2.599033,0.350952,-0.221252,0.049565,-0.005389,8.549621,4.336167
2.614678,0.297546,-0.381470,-0.034358,-0.020358,8.581954,4.312816
2.630402,0.373840,-0.236511,-0.087764,-0.004790,8.550220,4.322994
2.646037,0.328064,-0.350952,-0.019099,-0.019160,8.590935,4.314612
2.661941,0.434875,-0.213623,0.102971,0.001796,8.556208,4.326587
2.677790,0.419617,-0.366211,-0.026729,0.010179,8.572373,4.325988
2.693654,0.282288,-0.244141,-0.034358,-0.006586,8.570578,4.311618
2.709515,0.305176,-0.251770,-0.011470,-0.044907,8.566386,4.358321
2.725446,0.335693,-0.389099,-0.003840,-0.014969,8.575367,4.339759
2.741442,0.480652,-0.328064,-0.003840,-0.031135,8.549023,4.317605
2.757397,0.205994,-0.106812,0.049565,-0.014969,8.557405,4.315809
2.773143,0.335693,-0.267029,-0.049617,-0.006586,8.558003,4.322396
2.788811,0.358582,-0.411987,0.019048,-0.041913,8.572972,4.312816
2.804471,0.160217,-0.267029,-0.003840,-0.009580,8.543633,4.313414
2.820093,0.297546,-0.267029,-0.034358,-0.002994,8.577763,4.328982
2.835767,0.358582,-0.259399,-0.034358,0.001198,8.529862,4.328982
2.851577,0.282288,-0.373840,-0.095393,-0.046104,8.579558,4.341556
2.867414,0.434875,-0.396729,-0.026729,-0.045505,8.546627,4.327785
2.883006,0.381470,-0.274658,0.064824,-0.037123,8.555010,4.314612
2.898588,0.350952,-0.320435,0.064824,0.128732,8.604108,4.334970
2.914305,0.511169,-0.183105,0.072454,0.110171,8.541239,4.340957
2.930126,0.396729,-0.175476,0.034307,0.001796,8.572373,4.351136
2.946053,0.396729,-0.289917,-0.026729,-0.011975,8.569979,4.313414
2.962128,0.404358,-0.198364,-0.064875,0.005988,8.533455,4.337365
2.977843,0.099182,-0.328064,-0.049617,-0.037722,8.438851,4.353531
2.993907,0.465393,-0.236511,0.003789,-0.028141,8.562794,4.324192
3.009729,0.419617,-0.190735,0.049565,-0.004790,8.566386,4.330179
3.025603,0.289917,-0.366211,0.011418,-0.017364,8.572373,4.320001
3.041466,0.389099,-0.106812,-0.034358,-0.004191,8.582553,4.323593
3.057249,0.213623,-0.297546,-0.019099,-0.004191,8.542436,4.325988
3.073173,0.221252,-0.144958,0.003789,-0.011376,8.592133,4.333173
3.089116,0.312805,-0.282288,-0.087764,-0.009580,8.560997,4.325988
3.104845,0.366211,-0.251770,-0.019099,-0.011376,8.547825,4.327186
3.121933,0.228882,-0.236511,-0.011470,-0.028740,8.553213,4.345148
3.137831,0.289917,-0.190735,0.064824,0.003593,8.555010,4.315210
3.153523,0.297546,-0.282288,-0.064875,-0.029339,8.571774,4.344550
3.169165,0.167847,-0.274658,0.019048,0.004790,8.592731,4.311618
3.184829,0.427246,-0.274658,0.080083,-0.007784,8.543035,4.336766
3.200465,0.312805,-0.198364,0.034307,-0.019160,8.552615,4.336167
3.216127,0.297546,-0.297546,-0.110652,-0.010778,8.546028,4.337963
3.231723,0.282288,-0.366211,-0.041987,-0.049098,8.549023,4.333772
3.247397,0.282288,-0.297546,0.003789,-0.010179,8.560997,4.341556
3.263160,0.373840,-0.236511,-0.034358,-0.026345,8.566985,4.324790
3.279185,0.457764,-0.267029,0.110601,0.010179,8.562195,4.320600
3.295046,0.282288,-0.213623,-0.049617,0.013771,8.566386,4.330179
3.310827,0.305176,-0.198364,0.003789,-0.016765,8.560997,4.333772
3.326681,0.152588,-0.320435,-0.026729,-0.008383,8.574170,4.343352
3.342620,0.312805,-0.297546,-0.064875,0.134720,8.570578,4.333772
3.358562,0.473022,-0.198364,0.026677,-0.152682,8.561596,4.327785
3.374635,0.411987,-0.213623,-0.019099,-0.001198,8.546028,4.320600
3.390701,0.404358,-0.297546,0.019048,-0.013771,8.575367,4.318803
3.406505,0.373840,-0.320435,-0.026729,-0.017963,8.547825,4.345747
3.422125,0.205994,-0.267029,0.064824,-0.008981,8.574769,4.342753
3.437743,0.297546,-0.259399,0.095342,-0.008383,8.716075,4.339161
3.453432,0.640869,-0.419617,-0.087764,-0.004790,8.568781,4.321797
3.469167,0.335693,-0.061035,0.026677,-0.009580,8.563393,4.328383
3.484717,0.320435,-0.305176,-0.011470,0.000000,8.562195,4.346346
3.500328,0.251770,-0.251770,-0.011470,-0.024549,8.550220,4.340957
3.515923,0.228882,-0.297546,0.049565,0.009580,8.580157,4.344550
3.531915,0.457764,-0.267029,0.034307,-0.028141,8.563393,4.336766
3.547908,0.404358,-0.335693,-0.034358,-0.026944,8.544232,4.346945
3.563919,0.373840,-0.457764,-0.041987,-0.004790,8.558602,4.346945
3.579934,0.358582,-0.335693,0.041936,-0.022753,8.535251,4.319402
3.595764,0.221252,-0.183105,0.080083,0.000599,8.560997,4.348142
3.611593,0.389099,-0.183105,0.141118,0.027543,8.580157,4.322994
3.627816,0.534058,-0.160217,0.011418,-0.004790,8.543035,4.352932
3.643654,0.396729,-0.144958,0.034307,-0.124541,8.556208,4.327785
3.659581,0.381470,-0.488281,0.041936,-0.022154,8.565188,4.348741
3.675507,0.282288,-0.228882,0.041936,-0.045505,8.535251,4.340957
3.691486,0.419617,-0.259399,-0.003840,0.004790,8.583750,4.347543
3.707408,0.228882,-0.335693,0.049565,-0.002395,8.565188,4.331377
3.723386,0.450134,-0.213623,0.019048,0.005389,8.550818,4.317007
3.739278,0.289917,-0.274658,0.026677,-0.023950,8.579558,4.351136
3.754962,0.404358,-0.160217,-0.041987,-0.021555,8.568781,4.334371
3.770604,0.442505,-0.366211,0.072454,-0.014969,8.551417,4.321797
3.786202,0.350952,-0.350952,0.125859,-0.023950,8.565787,4.331377
3.801773,0.480652,-0.175476,-0.011470,-0.016166,8.534054,4.324192
3.817325,0.274658,-0.404358,0.003789,-0.016166,8.577763,4.339161
3.832882,0.251770,-0.434875,0.034307,-0.013771,8.556208,4.321797
3.848441,0.312805,-0.122070,-0.011470,-0.033530,8.552016,4.349339
3.864110,0.396729,-0.320435,0.102971,-0.023351,8.563992,4.322994
3.879919,0.236511,-0.228882,0.080083,-0.028141,8.573571,4.337365
3.895820,0.366211,-0.221252,0.011418,-0.023351,8.538843,4.346945
3.911692,0.282288,-0.350952,0.133489,-0.021555,8.556208,4.340957
3.927491,0.366211,-0.152588,-0.026729,-0.009580,8.546028,4.333772
3.943363,0.366211,-0.419617,-0.034358,-0.013771,8.555010,4.320600
3.959317,0.389099,-0.350952,0.072454,-0.000599,8.595126,4.327785
3.975288,0.205994,-0.167847,0.011418,-0.000599,8.554411,4.341556
3.991234,0.335693,-0.183105,0.034307,-0.020358,8.557405,4.302038
4.007190,0.320435,-0.190735,0.034307,0.019759,8.565188,4.346945
4.023101,0.434875,-0.175476,-0.049617,-0.150886,8.531658,4.334371
4.038823,0.350952,-0.205994,-0.080134,-0.150886,8.560997,4.326587
4.054515,0.175476,-0.419617,-0.118281,-0.020956,8.577763,4.334371
4.070215,0.274658,-0.160217,-0.034358,-0.014370,8.543633,4.343352
4.085988,0.259399,-0.213623,-0.087764,-0.037722,8.562195,4.340358
4.101711,0.328064,-0.289917,-0.011470,-0.010778,8.566386,4.324192
4.118560,0.396729,-0.114441,0.110601,-0.001198,8.575367,4.319402
4.134217,0.198364,-0.228882,-0.057246,0.008383,8.579558,4.331377
4.149842,0.404358,-0.320435,-0.080134,-0.020956,8.546627,4.314612
4.165866,0.511169,-0.267029,-0.057246,-0.000599,8.572972,4.328982
4.181581,0.228882,-0.244141,0.072454,-0.027543,8.570578,4.331976
4.197231,0.389099,-0.244141,-0.026729,-0.147892,8.553812,4.325988
4.212904,0.244141,-0.228882,-0.034358,-0.022753,8.574170,4.334970
4.228903,0.320435,-0.183105,0.087712,-0.003593,8.560398,4.338562
4.244749,0.305176,-0.312805,-0.019099,0.004790,8.564590,4.322396
4.260641,0.373840,-0.312805,-0.019099,-0.001198,8.570578,4.358321
4.276519,0.411987,-0.244141,-0.041987,-0.007185,8.548424,4.343951
4.292346,0.297546,-0.289917,0.003789,-0.041913,8.554411,4.330778
4.308172,0.473022,-0.343323,0.041936,-0.029339,8.571774,4.356524
4.323967,0.404358,-0.328064,0.034307,-0.002994,8.559800,4.315809
4.339585,0.366211,-0.350952,0.019048,-0.032932,8.556208,4.337365
4.355267,0.450134,-0.350952,-0.041987,-0.004191,8.561596,4.352334
4.370954,0.328064,-0.244141,0.072454,-0.039518,8.586145,4.319402
4.386747,0.328064,-0.205994,0.041936,0.001796,8.562794,4.301439
4.402322,0.289917,-0.114441,0.011418,0.008981,8.552615,4.336167
4.417878,0.396729,-0.297546,-0.026729,-0.001198,8.581954,4.340957
4.433438,0.389099,-0.228882,0.080083,-0.008981,8.547226,4.334371
4.448979,0.511169,-0.305176,0.026677,0.004790,8.550220,4.302637
4.464677,0.343323,-0.419617,0.034307,-0.034728,8.607700,4.334371
4.480396,0.328064,-0.289917,-0.011470,0.002994,8.562195,4.333173
4.496218,0.221252,-0.152588,0.034307,-0.013173,8.566386,4.343951
4.512029,0.312805,-0.228882,0.026677,0.017963,8.559800,4.333173
4.527816,0.312805,-0.350952,0.003789,-0.049098,8.550818,4.342155
4.543707,0.213623,-0.282288,-0.011470,-0.009580,8.589738,4.324790
4.559727,0.289917,-0.259399,0.057195,0.000599,8.569380,4.352334
4.575881,0.442505,-0.122070,0.049565,-0.021555,8.556208,4.329581
4.592658,0.381470,-0.328064,-0.026729,-0.019759,8.579558,4.346346
4.608605,0.282288,-0.160217,0.011418,-0.040715,8.568781,4.330778
4.624631,0.389099,-0.228882,0.003789,-0.010778,8.560997,4.330179
4.640458,0.404358,-0.328064,-0.064875,-0.031135,8.554411,4.328982
4.656195,0.389099,-0.282288,-0.026729,-0.037123,8.583750,4.322994
4.672312,0.366211,-0.205994,0.026677,0.018561,8.535850,4.343951
4.688081,0.305176,-0.122070,-0.003840,-0.021555,8.561596,4.327186
4.703836,0.419617,-0.167847,0.011418,-0.007784,8.569979,4.308025
4.719511,0.343323,-0.282288,0.019048,-0.011975,8.539442,4.318803
4.735066,0.122070,-0.152588,0.011418,-0.017364,8.570578,4.339759
4.750611,0.328064,-0.213623,-0.057246,-0.026345,8.563992,4.322994
4.766238,0.366211,-0.228882,0.034307,-0.025746,8.559201,4.324790
4.781836,0.350952,-0.267029,-0.057246,0.109572,8.586743,4.323593
4.797609,0.396729,-0.259399,0.064824,-0.012574,8.568182,4.327785
4.813583,0.328064,-0.289917,-0.034358,-0.020358,8.515491,4.321198
4.829436,0.358582,-0.274658,-0.087764,-0.019759,8.572972,4.336167
4.845283,0.343323,-0.175476,0.003789,-0.005988,8.543633,4.303834
4.861125,0.343323,-0.343323,-0.003840,-0.018561,8.580157,4.342155
4.877077,0.205994,-0.213623,0.041936,-0.018561,8.568182,4.319402
4.893052,0.404358,-0.152588,-0.041987,-0.025746,8.519683,4.328982
4.908953,0.343323,-0.320435,-0.072505,-0.031734,8.571774,4.328383
4.924925,0.175476,-0.343323,0.026677,-0.007185,8.563992,4.336167
4.940935,0.350952,-0.221252,-0.095393,-0.020358,8.556208,4.319402
4.956727,0.381470,-0.183105,0.049565,-0.041913,8.560997,4.322396
4.972434,0.381470,-0.221252,0.026677,-0.035925,8.547226,4.319402
4.989861,0.404358,-0.160217,-0.072505,-0.030536,8.543035,4.310421
5.005869,0.289917,-0.305176,-0.080134,-0.049098,8.561596,4.348142
5.021578,0.373840,-0.068665,-0.019099,-0.031734,8.575966,4.337365
5.037254,0.434875,-0.305176,0.034307,-0.008981,8.544232,4.339161
5.053293,0.305176,-0.328064,0.003789,-0.028740,8.564590,4.339759
5.069287,0.480652,-0.305176,-0.103022,-0.029339,8.569979,4.326587
5.085075,0.373840,-0.267029,0.041936,-0.010179,8.556806,4.312217
5.100772,0.297546,-0.297546,-0.087764,-0.013771,8.556208,4.368500
5.116349,0.389099,-0.289917,0.057195,-0.022753,8.563992,4.327186
5.132004,0.373840,-0.358582,-0.011470,-0.014370,8.537646,4.356524
5.147827,0.335693,-0.236511,0.057195,-0.022753,8.566985,4.326587
5.163797,0.419617,-0.282288,0.064824,0.000000,8.562195,4.324790
5.179703,0.267029,-0.320435,-0.141169,-0.009580,8.576565,4.338562
5.195654,0.251770,-0.305176,0.087712,-0.024549,8.565787,4.342155
5.211526,0.366211,-0.427246,-0.080134,-0.031734,8.538244,4.325988
5.227385,0.297546,-0.251770,0.118230,-0.051493,8.579558,4.325988
5.243240,0.488281,-0.274658,-0.011470,0.002994,8.547226,4.344550
5.258953,0.312805,-0.259399,0.041936,-0.008383,8.534054,4.335568
5.274850,0.244141,-0.068665,0.072454,-0.031734,8.595725,4.348741
5.290520,0.328064,-0.350952,0.011418,-0.020358,8.565787,4.317007
5.306205,0.495911,-0.381470,0.148748,-0.014969,8.552615,4.332574
5.321951,0.244141,-0.183105,-0.003840,-0.141905,8.595725,4.329581
5.337594,0.450134,-0.274658,-0.041987,0.145497,8.560997,4.315210
5.353153,0.289917,-0.137329,0.072454,-0.028141,8.578362,4.343951
5.368684,0.236511,-0.274658,0.034307,-0.010179,8.571774,4.326587
5.384270,0.312805,-0.289917,0.072454,-0.041913,8.547226,4.345747
5.399841,0.389099,-0.228882,0.034307,-0.018561,8.583151,4.324192
5.415522,0.434875,-0.228882,-0.049617,-0.009580,8.559201,4.334970
5.431330,0.381470,-0.122070,-0.011470,-0.013771,8.571774,4.327186
5.447158,0.282288,-0.434875,-0.049617,-0.010778,8.565188,4.338562
5.463242,0.335693,-0.373840,-0.011470,-0.007784,8.547226,4.332574
5.479233,0.190735,-0.228882,-0.011470,-0.035925,8.562794,4.312816
5.495009,0.404358,-0.221252,-0.087764,-0.026944,8.437055,4.338562
5.510717,0.450134,-0.320435,0.080083,-0.017963,8.540640,4.336766
5.526739,0.221252,-0.282288,-0.011470,-0.022753,8.553213,4.314612
5.542519,0.228882,-0.259399,0.164006,-0.005389,8.574769,4.348741
5.558315,0.320435,-0.137329,0.011418,-0.138312,8.558602,4.345747
5.574009,0.328064,-0.167847,-0.003840,-0.048499,8.541239,4.334371
5.589558,0.335693,-0.274658,0.011418,-0.022154,8.573571,4.342155
5.605153,0.495911,-0.495911,0.034307,0.005389,8.529263,4.345747
5.620756,0.328064,-0.366211,0.003789,-0.017963,8.590336,4.337365
5.636275,0.251770,-0.175476,0.110601,0.006586,8.590336,4.344550
5.651983,0.411987,-0.236511,0.041936,-0.007185,8.558602,4.349938
5.667601,0.457764,-0.213623,0.125859,0.010778,8.567584,4.324192
5.683238,0.328064,-0.320435,-0.103022,-0.022154,8.566386,4.355327
5.698878,0.305176,-0.213623,0.003789,-0.019759,8.557405,4.306229
5.715241,-10.826111,-2.006531,1.583074,-0.665217,14.262341,8.571160
5.731275,16.128540,3.242493,-3.452327,2.672243,10.550061,8.344831
5.746999,96.366882,2.235413,-9.029414,1.835783,15.212565,9.057948
5.762595,138.305664,-8.644104,-10.646846,0.270637,10.003997,5.890535
5.778818,134.178162,-1.167297,-9.983088,-0.276625,8.298144,5.153467
5.794816,152.519226,-0.541687,-10.768916,0.504750,9.414223,5.113950
5.810702,163.032532,-3.723145,-13.988521,0.001198,8.015532,6.091117
5.826662,182.556152,-12.863159,-11.241939,-0.980761,8.625064,4.748709
5.842527,200.485229,-5.874634,-12.531306,-0.354463,6.373147,4.661291
5.858522,223.159790,-6.156921,-8.976008,-0.770598,4.234993,2.778805
5.874192,223.129272,-6.942749,-4.261043,-0.849034,7.437134,1.686078
5.889860,231.620789,-7.347107,1.224492,-0.588576,1.405877,0.176018
5.905567,169.052124,2.738953,3.025029,-1.067580,-2.739902,0.037107
5.921227,85.723877,0.732422,11.295293,0.310155,3.209326,-1.429244
5.936796,72.906494,-2.677917,16.872381,0.332908,8.235873,0.186197
5.952400,138.717651,-18.692017,35.564396,-6.519842,19.617605,-12.305027
5.968298,88.127136,1.296997,11.150334,3.229684,17.471668,-15.077862
5.983901,141.189575,9.559631,6.137822,6.813830,-6.801856,4.244557
5.999625,94.505310,-6.172180,22.937750,-1.523232,3.248245,0.989127
6.015692,59.677124,-40.573120,-13.813045,-4.615202,13.476176,-6.700083
6.031374,66.955566,31.333923,-4.230525,-7.879614,8.282577,-16.079578
6.047150,101.577759,52.207947,13.950322,3.390749,7.446714,-6.096538
6.063169,103.431702,-27.549744,-16.429926,2.026186,9.219627,-4.399667
6.079058,90.133667,-4.661560,-1.071956,-3.932622,8.089178,-7.910765
6.094966,103.721619,32.478333,-2.010371,0.298180,9.010063,-5.795963
6.110608,86.593628,8.537292,-3.055598,0.593965,5.070855,-3.398549
6.126279,88.439941,12.466431,-9.586360,-0.146096,10.788365,-8.286184
6.142147,87.310791,10.322571,-7.709529,-0.193997,6.302494,-4.843344
6.158163,83.770752,6.599426,-3.910090,0.861010,7.480844,-7.222197
6.173804,78.819275,4.974365,-2.056148,-0.687371,6.948550,-7.387454
6.189409,71.563721,3.326416,-0.843074,-0.288600,6.069578,-6.169586
6.205020,68.977356,0.816345,-0.507380,0.190404,6.771918,-6.290534
6.220647,71.189880,-5.310059,0.980352,-0.350870,6.984476,-6.357595
6.236187,71.273804,-4.196167,2.521489,0.501757,6.451584,-6.607875
6.251828,70.144653,-6.896973,1.712773,0.238304,6.431226,-6.912641
6.267476,67.298889,-6.629944,2.826665,0.047900,6.356382,-7.062330
6.283084,64.849854,-6.874084,2.521489,0.273631,6.195916,-6.574943
6.298902,64.308167,-7.385254,1.239751,-0.256866,6.403085,-6.750379
6.314815,66.886902,-4.951477,0.423406,-1.110092,9.948313,-5.082846
6.330653,55.366516,5.554199,3.597234,5.073849,5.361251,-8.940025
6.346513,57.189941,-6.324768,1.956914,-0.934058,5.581593,-8.895119
6.362472,47.203064,-0.381470,0.812505,0.154479,5.231920,-8.850212
6.378466,48.843384,-1.083374,2.956365,-0.470621,5.253475,-8.077818
6.394382,50.071716,-3.746033,0.431035,-0.211360,5.104984,-8.177810
6.410206,46.714783,-0.816345,1.865361,0.352068,5.142706,-8.434077
6.426298,41.908264,-0.167847,0.308965,-0.231119,4.417614,-8.513712
6.442195,36.659241,0.129700,-0.766780,0.052690,4.320016,-8.768183
6.457888,33.782959,0.625610,-1.483943,-0.004790,4.333788,-8.598735
6.473557,30.075073,1.754761,-1.911189,0.067659,4.592450,-8.934037
6.489238,26.985168,0.640869,-0.957515,-0.427511,4.417015,-8.529279
6.505047,23.849487,1.083374,-2.300288,-0.153281,4.478686,-9.010678
6.520690,19.691467,0.762939,-1.392390,0.158670,4.221222,-8.558619
6.536246,16.212463,0.831604,-0.324275,-0.108375,4.343966,-9.004092
6.551873,14.373779,0.167847,-0.644709,-0.219743,4.178112,-8.862186
6.567444,10.848999,-0.160217,0.186895,0.005389,4.184099,-8.855600
6.583074,7.774353,-0.480652,0.568364,0.069456,4.264332,-8.855600
6.598816,4.951477,-0.648499,0.293706,0.037123,4.193679,-8.866378
6.614596,1.693726,-0.282288,-0.072505,-0.070054,4.229605,-8.853805
6.630362,-1.335144,-0.289917,-0.186946,-0.167053,4.258345,-8.824466
6.646189,-4.928589,-0.343323,0.164006,-0.160466,4.236790,-8.865181
6.663124,-8.132935,0.053406,-0.019099,-0.032333,3.687731,-8.793929
6.679358,-20.179749,-5.485535,-5.077388,0.329914,1.398691,-14.431206
6.694982,-93.933105,3.456116,5.741094,-1.075963,-3.818859,-8.438269
6.710677,-172.218323,-3.448486,0.347112,-0.360450,2.810555,-11.891288
6.726716,-174.011230,-3.730774,2.506230,0.016765,4.851711,-7.459304
6.742378,-171.028137,-8.857727,3.932927,0.286205,7.634724,-9.633383
6.757997,-157.630920,-5.119324,6.870244,0.532892,7.489226,-8.546044
6.773765,-144.493103,-6.690979,1.544927,0.453856,9.503437,-7.247345
6.789363,-128.814697,-12.390137,-11.150386,2.365082,10.908116,-8.965173
6.804915,-110.107422,-5.706787,3.726933,0.261057,7.538324,-7.945493
6.820490,-35.079956,-0.740051,5.550359,-1.111888,10.806328,-4.517023
6.836062,-8.651733,-0.198364,7.762883,0.651445,13.419294,-2.416591
6.851691,44.990540,-11.360168,-5.466487,0.808319,9.433383,0.683762
6.867287,97.465515,-12.710571,3.505681,-0.793350,12.731325,-2.809374
6.882964,90.217590,-9.506226,3.787969,-0.522114,9.445358,-1.744189
6.899328,82.008362,-8.148193,6.877873,-0.179626,6.067782,-1.277160
6.915132,61.096191,-10.818481,3.116582,-0.653840,6.847960,-3.645834
6.930845,25.947571,-9.689331,0.987981,-0.059875,6.010900,-3.487763
6.946487,3.463745,-10.734558,0.446294,-0.368833,5.142706,-3.553027
6.962441,-8.781433,-10.269165,2.490972,-1.231040,7.429350,-5.560652
6.978148,-18.135071,-8.285522,1.964543,0.046703,6.974895,-5.920504
6.993821,-4.745483,-6.454468,-1.354243,-0.746647,7.167695,-6.366577
7.009515,11.566162,-4.165649,-0.087764,-0.468825,8.333470,-6.340830
7.025131,16.906738,9.956360,5.443547,-0.232916,7.292834,-7.037781
7.040779,45.471191,10.749817,5.794499,-1.677112,7.544312,-7.513192
7.056386,48.965454,7.431030,-2.018001,0.038320,7.246131,-6.769538
7.072030,60.859680,6.614685,-6.282832,-0.142504,6.521039,-7.826940
7.087578,78.468323,5.393982,-5.779292,-1.273552,7.087461,-8.443058
7.103162,84.045410,8.583069,-1.468684,0.524509,5.978568,-6.513870
7.118705,94.551086,3.257751,-4.810359,-0.198188,6.983877,-7.202438
7.134260,84.609985,4.745483,-3.665950,-0.223934,5.634284,-5.614541
7.149851,83.580017,3.051758,-3.109004,0.124541,6.655160,-6.539018
7.165634,71.380615,1.716614,-3.162410,0.083227,6.144423,-6.640806
7.181422,69.488525,2.365112,-4.253413,-0.444875,6.041437,-7.177889
7.197284,66.040039,3.501892,-3.566768,0.013173,5.495372,-7.317998
7.213160,71.990967,2.449036,-4.825618,-0.131127,5.221143,-8.387973
7.229054,73.158264,2.899170,-4.421260,-0.162263,4.629573,-9.041813
7.244922,81.794739,2.746582,-2.864863,-0.305365,4.430786,-9.108874
7.260714,86.364746,1.312256,-2.582576,-0.708926,4.338578,-9.255569
7.276566,93.833923,1.655579,-2.727534,-0.855022,4.133205,-9.775887
7.292300,100.852966,-0.152588,-1.544978,-0.423918,4.246370,-8.714893
7.307915,106.201172,0.282288,-1.209285,-0.236508,3.847000,-8.869970
7.323565,107.650757,0.099182,-1.552607,-0.034728,3.508105,-8.799916
7.339234,108.848572,-0.892639,-0.797297,-0.567021,3.269202,-8.219723
7.355196,106.491089,-1.441956,-1.117732,-0.360450,2.924319,-9.584884
7.370773,97.908020,-0.076294,-2.056148,0.011975,1.859134,-7.915555
7.386331,98.129272,1.228333,-3.124263,0.104183,2.071692,-9.486090
7.401872,99.342346,0.427246,-4.459407,0.299976,1.562151,-9.594464
7.417463,101.760864,1.464844,-4.062678,0.274828,1.413061,-9.806423
7.433193,107.986450,2.227783,-4.299190,-0.352667,0.350870,-10.547682
7.449105,115.966797,0.953674,-3.849055,-0.015568,0.590971,-10.234533
7.464985,117.210388,2.761841,-6.198909,0.143701,0.149689,-9.255569
7.480879,124.984741,2.166748,-2.018001,-1.062790,-0.311353,-10.323748
7.496756,122.840881,-1.823425,-1.651790,0.628094,-0.712518,-8.130508
7.512602,121.086121,0.099182,-7.663753,-0.113165,-1.960922,-9.359753
7.528498,123.107910,2.227783,-2.880122,-0.216749,-0.556842,-9.631587
7.544305,121.139526,1.388550,-0.461604,-0.085023,-1.234633,-9.595661
7.560133,121.566772,-0.938416,-3.574397,1.706451,-1.984872,-9.736369
7.575751,120.971680,1.281738,-6.465938,0.062271,-2.032174,-9.907613
7.591438,125.549316,-0.503540,-0.820186,-0.865201,-3.037483,-9.792053
7.608318,130.332947,-2.716064,-0.110652,0.842448,-3.388354,-9.227427
7.624113,133.949280,-0.709534,-3.704097,0.568218,-3.645818,-10.233335
7.639811,134.147644,-0.778198,-2.323176,-0.281415,-3.426674,-9.027443
7.655469,132.736206,-2.510071,0.957463,-0.126337,-4.186494,-8.066442
7.672582,131.126404,-2.784729,0.980352,0.031734,-4.704417,-8.175415
7.688613,130.172729,0.000000,2.452825,-0.164658,-5.484595,-8.957389
7.704297,130.546570,-0.045776,1.140569,-0.253273,-5.515131,-7.372485
7.720841,129.219055,-1.060486,0.591252,-0.100591,-6.279741,-8.296963
7.736691,133.865356,0.404358,0.057195,0.131726,-7.522757,-8.130508
7.752480,135.856628,1.800537,0.232671,0.001198,-7.240743,-8.630468
7.768118,135.055542,0.076294,1.789067,0.154479,-7.561077,-6.964733
7.783774,134.613037,-0.488281,0.553105,-0.221539,-6.799460,-6.104921
7.799909,131.004333,-1.220703,1.918767,-0.512534,-8.152048,-5.737285
7.815773,131.240845,-2.296448,-0.301387,-1.041834,-8.119715,-6.003132
7.831750,130.851746,-0.556946,-0.881221,0.129930,-7.315587,-5.702558
7.847578,127.830505,-0.900269,-1.506831,-0.399968,-8.218510,-4.785864
7.863529,128.242493,-0.259399,-2.018001,-0.221539,-9.211843,-5.428328
7.879473,139.373779,-7.194519,-25.203730,0.016166,-10.001601,0.974757
7.895385,119.056702,-13.069153,-31.436945,0.025148,-8.481363,-1.942976
7.911197,132.179260,-19.195557,-13.752009,-1.816622,-9.067544,-3.902102
7.927779,97.160339,-8.239746,-2.651240,-2.098636,-12.720548,-2.499219
7.943816,61.431885,3.860474,12.226079,-0.201182,-10.408755,-1.594500
7.959810,31.906128,8.239746,17.604803,0.166454,-7.474257,0.894524
7.975547,10.353088,0.656128,0.354741,-0.753234,-6.501280,-0.413756
7.991215,-24.688721,-2.746582,-4.383113,-0.649050,-11.335029,-1.159205
8.006876,-58.822632,-10.566711,-12.271907,0.247885,-9.795032,0.101174
8.022580,-82.702637,-7.736206,-9.784724,-0.743654,-8.988508,3.493719
8.038182,-67.588806,10.108948,4.505132,3.489543,-6.690487,-6.561172
8.053784,-82.618713,7.545471,-14.362361,4.446354,-9.035212,-3.616495
8.069363,-80.924988,-22.018433,-15.956904,1.697470,-9.474697,-4.509239
8.085197,-78.544617,-12.977600,-12.378718,0.362247,-9.180709,-4.090709
8.101598,-67.214966,-3.944397,6.259892,-1.000519,-11.517649,-6.320472
8.117568,-46.768188,9.941101,19.855474,-0.143701,-9.968071,-5.445692
8.133575,-27.046204,12.763977,28.354620,0.210762,-8.849597,-5.930683
8.149499,-30.632019,15.167236,24.341558,-0.110171,-7.176077,-5.048717
8.165165,-35.652161,7.812500,18.672918,0.601749,-8.835227,-5.689385
8.180852,-37.940979,7.232666,11.905644,-0.335303,-6.967112,-5.598973
8.196821,-44.464111,3.845215,7.358525,-0.214354,-8.492141,-5.769019
8.212539,-45.631409,2.288818,3.169988,0.111368,-7.918533,-5.743872
8.228391,-44.837952,1.487732,-1.483943,-0.268242,-7.990983,-6.214493
8.244233,-39.993286,-0.930786,-1.369502,-0.389191,-8.146060,-6.202518
8.260167,-37.971497,-0.419617,-2.658870,-0.204175,-7.852670,-6.139648
8.275826,-35.202026,-0.320435,-5.245234,-0.110171,-7.771240,-6.300115
8.291498,-35.652161,-2.456665,-7.175471,0.087418,-7.979606,-5.969003
8.307128,-35.758972,-3.997803,-8.922603,-0.051493,-7.505393,-6.603683
8.322770,-38.017273,-4.722595,-4.596736,-0.138911,-7.443721,-6.289936
8.338319,-37.612915,-0.488281,0.133489,0.713716,-7.485035,-6.694096
8.353866,-34.942627,0.007629,-0.843074,-0.117356,-7.438332,-6.867136
8.369445,-33.355713,-2.639771,-1.026179,-0.334105,-7.649693,-6.907252
8.385061,-31.623840,-1.976013,-0.553157,0.010778,-7.188651,-6.795884
8.400883,-30.990601,3.257751,1.255010,-0.470621,-7.110214,-7.122804
8.416746,-29.907227,1.106262,2.689336,-0.417931,-6.837781,-7.089872
8.432619,-29.052734,-0.251770,3.696416,0.104782,-7.014413,-7.061731
8.448489,-28.366089,2.540588,4.451726,0.150287,-6.895860,-7.159328
8.464326,-26.809692,1.091003,3.757451,-0.061672,-6.915020,-7.212617
8.480196,-26.145935,-0.373840,1.560186,0.213157,-6.898854,-7.400626
8.496076,-25.436401,-0.427246,0.125859,-0.407752,-6.680907,-7.297041
8.511823,-25.520325,0.091553,0.575994,-0.423918,-6.579119,-7.358713
8.527651,-24.635315,-0.564575,-1.430537,0.182021,-6.478528,-7.511396
8.543440,-23.765564,-1.098633,-3.673579,0.110171,-6.556965,-7.517982
8.559711,-23.193359,-0.099182,-1.880671,-0.286804,-6.566545,-7.480859
8.575608,-21.934509,-0.320435,0.789617,0.404160,-6.525829,-7.629351
8.591263,-19.996643,0.083923,0.026677,0.243094,-6.318660,-7.666473
8.607395,-19.721985,-0.862122,0.614141,-0.438887,-6.375542,-7.703596
8.623269,-18.531799,-0.259399,2.361272,0.000000,-6.286327,-7.704794
8.639140,-17.395020,0.503540,1.461003,-0.180225,-6.082152,-7.732337
8.654775,-17.105103,-0.556946,-0.064875,-0.213157,-6.159391,-7.799397
8.670589,-15.571594,-0.671387,0.064824,-0.121547,-6.268365,-7.913759
8.686247,-14.167786,0.427246,-0.354792,0.030536,-6.205496,-7.891605
8.701834,-12.596130,-0.473022,-0.965144,-0.114362,-6.112689,-7.861668
8.717558,-11.550903,-0.518799,-0.782039,0.020358,-5.837261,-7.886815
8.733438,-10.696411,-0.373840,-0.194575,-0.217947,-5.900729,-7.872445
8.749233,-10.032654,0.045776,0.431035,-0.061672,-5.866601,-7.889210
8.765011,-9.040833,-0.564575,0.110601,0.004191,-5.898933,-7.980221
8.780851,-7.522583,-0.221252,0.743840,-0.174238,-5.964796,-8.000579
8.796699,-5.599976,-0.190735,1.102422,0.139510,-5.904322,-8.028121
8.812533,-3.898621,-0.144958,0.324224,-0.130529,-5.885162,-8.048479
8.828373,-2.433777,-0.404358,-0.087764,-0.187410,-5.855823,-7.894000
8.844237,-1.037598,-0.030518,-0.110652,-0.088616,-5.780380,-7.994591
8.860034,-0.320435,-0.076294,-0.751521,-0.072449,-5.800737,-7.963456
8.875662,0.350952,-0.495911,-0.682856,-0.065863,-5.830076,-8.031713
8.891309,1.548767,-0.274658,-0.103022,-0.005389,-5.868397,-8.019140
8.907013,2.944946,-0.221252,0.301335,-0.055085,-5.913902,-8.064646
8.922644,4.295349,-0.503540,0.293706,-0.099393,-5.905519,-8.043090
8.938281,6.225586,-0.320435,0.385259,-0.163460,-5.900131,-7.972437
8.953848,7.469177,-0.160217,0.225042,-0.140707,-5.867798,-7.976030
8.969509,8.430481,-0.114441,-0.553157,-0.120948,-5.864804,-7.945493
8.985138,9.193420,-0.251770,-0.728633,-0.102986,-5.942642,-7.898191
9.000936,10.360718,-0.167847,-0.476863,-0.065264,-6.030060,-7.924537
9.016851,11.459351,-0.312805,-0.133540,-0.056882,-6.086343,-7.901784
9.033506,12.550354,-0.518799,0.064824,-0.141905,-6.125262,-7.892204
9.049489,13.938904,-0.442505,-0.011470,-0.146096,-6.102510,-7.777842
9.065149,14.892578,-0.282288,-0.003840,-0.088616,-6.086942,-7.736528
9.080784,15.083313,-0.236511,-0.286128,-0.028141,-6.127657,-7.711979
9.096744,15.609741,-0.419617,-0.583674,-0.010179,-6.231841,-7.721559
9.112389,16.517639,-0.366211,-0.064875,-0.131726,-6.385122,-7.735330
9.128104,17.761230,-0.320435,0.034307,-0.161065,-6.389313,-7.737725
9.143872,19.149780,-0.503540,0.019048,-0.107177,-6.552175,-7.676652
9.159466,20.263672,-0.022888,0.232671,-0.066462,-6.424640,-7.613184
9.175044,20.637512,-0.267029,-0.461604,-0.020358,-6.473738,-7.512593
9.190711,20.698547,-0.427246,-0.682856,-0.152682,-6.530021,-7.453916
9.206323,21.041870,-0.419617,-0.194575,-0.117356,-6.534811,-7.418589
9.221909,20.828247,-0.091553,-0.766780,0.029339,-6.886878,-7.389250
9.237530,21.835327,-0.083923,-2.895381,0.104183,-6.807843,-7.382065
9.253200,22.613525,-0.885010,-2.658870,-0.259261,-6.828201,-7.273091
9.268825,23.445129,-0.305176,-0.865962,0.007784,-6.865922,-7.249141
9.284642,23.849487,-0.442505,-0.072505,0.119152,-6.892267,-7.210821
9.300513,23.689270,-0.236511,0.446294,-0.026944,-6.854546,-7.067719
9.316313,23.300171,-0.297546,1.270269,-0.125140,-6.828201,-7.086280
9.332105,23.506165,0.358582,1.911138,-0.183219,-7.095844,-7.119211
9.348035,24.421692,-0.091553,2.239202,-0.231718,-7.046746,-6.953356
9.364051,26.107788,0.198364,1.384709,-0.093406,-7.140751,-7.071311
9.379962,27.366638,-0.282288,-1.544978,-0.256267,-7.246730,-6.874321
9.395812,28.198242,-0.015259,-1.125361,0.171843,-7.376660,-6.855161
9.411773,29.296875,-0.671387,-2.880122,0.077239,-7.325167,-6.806063
9.427736,28.678894,-0.450134,-2.727534,-0.223934,-7.386240,-6.616257
9.443633,28.762817,-1.060486,-1.407649,0.055085,-7.411388,-6.621047
9.459382,28.747559,-1.136780,-0.370051,0.223934,-7.646100,-6.562968
9.475096,29.273987,-0.381470,-0.942256,-0.022154,-7.647896,-6.416273
9.490925,30.540466,-1.121521,0.019048,-0.354463,-7.668254,-6.595900
9.506529,29.449463,0.755310,1.415227,-0.086819,-7.835306,-6.292930
9.522099,33.096313,0.892639,0.583623,0.123942,-7.740104,-6.146833
9.537738,31.051636,-0.213623,-0.591304,-0.089813,-7.729327,-6.093544
9.553334,30.387878,-0.686646,-1.087214,0.086819,-7.861651,-6.119890
9.569108,27.488708,-0.114441,-0.499751,-0.434696,-8.120913,-5.801950
9.584846,30.471802,-0.419617,0.278447,0.118553,-8.031099,-6.066600
9.600705,31.372070,-1.098633,-0.865962,0.177231,-8.304730,-5.945053
9.616565,31.684875,-1.243591,-0.217463,-0.367037,-8.258626,-5.666632
9.632522,31.402588,-0.556946,0.347112,-0.069456,-8.229287,-5.639090
9.648638,30.982971,0.099182,0.209783,-0.263452,-8.187973,-5.525925
9.664883,29.449463,0.320435,0.011418,-0.088616,-8.267608,-5.665434
9.680722,29.426575,-0.610352,-1.155879,0.115560,-8.546028,-5.421741
9.696605,30.090332,-0.137329,-0.370051,-0.084424,-8.496930,-5.407970
9.712404,31.204224,-0.228882,0.072454,-0.083227,-8.597522,-5.421741
9.728047,31.066895,0.137329,0.102971,0.031135,-8.586145,-5.120568
9.743670,31.410217,-0.038147,-0.049617,-0.035925,-8.551417,-5.157691
9.759522,34.393311,2.601624,-3.589656,0.416733,-8.996292,-3.113541
9.775266,27.748108,-2.090454,-6.984736,0.964594,-8.984317,-3.208144
9.791030,25.535583,-3.959656,-7.648494,-0.120948,-9.143586,-3.978742
9.806733,20.210266,-7.492065,-10.585811,-0.074246,-9.511820,-3.987723
9.822266,15.068054,-8.346558,-11.699702,-0.155078,-9.065747,-4.308057
9.837791,8.049011,-9.025574,-11.722590,0.387394,-9.607621,-4.240997
9.853398,3.852844,-8.659363,-10.807063,0.229922,-9.010662,-4.396074
9.868970,-0.885010,-6.423950,-6.740596,0.256866,-9.155560,-4.400864
9.884753,-2.204895,-2.792358,-1.911189,0.200583,-8.953780,-4.588873
9.900598,-3.875732,1.174927,3.238652,0.323328,-9.090297,-4.562528
9.916440,-4.142761,5.790710,6.702397,0.362247,-8.910670,-4.529596
9.932257,-5.943298,5.279541,8.258794,0.146096,-9.006471,-4.711020
9.948330,-7.034302,4.981995,9.342168,-0.268242,-9.004675,-4.535584
9.964436,-9.834290,6.141663,8.899663,-0.558638,-9.034014,-4.734970
9.980430,-12.321472,5.828857,9.090398,-0.251477,-8.613089,-4.760117
9.996280,-14.312744,6.843567,8.403752,0.256267,-9.000484,-4.921781
10.012189,-14.350891,4.859924,6.015752,0.370031,-8.634046,-4.994829
10.028067,-16.433716,2.365112,4.520391,0.403561,-8.737630,-4.982854
10.043763,-14.839172,1.846313,3.574346,-0.222138,-8.863967,-5.292410
10.059447,-11.985779,0.068665,1.537297,-0.500559,-8.475375,-5.048717
10.075105,-11.077881,-0.312805,1.056646,-0.104183,-8.747808,-5.169665
10.090785,-10.200500,0.129700,-0.629451,0.310754,-8.545429,-5.108593
10.106386,-11.558533,-2.822876,-3.620173,-0.235909,-8.553812,-4.996027
10.121944,-12.466431,-2.593994,-3.261592,-0.094603,-8.347241,-5.337317
10.137537,-13.549805,-0.679016,-2.071406,-0.295785,-8.540041,-5.370847
10.153156,-12.794495,-0.175476,-0.713374,0.050295,-8.487949,-5.340909
10.168835,-11.772156,-1.281738,-1.285579,0.008383,-8.679551,-5.433118
10.184664,-9.742737,-0.900269,-0.652339,-0.010179,-8.452622,-5.332527
10.200631,-9.025574,0.282288,0.743840,0.025746,-8.366402,-5.430723
10.216526,-8.895874,0.961304,1.644109,-0.026345,-8.456814,-5.503771
10.232531,-8.827209,0.854492,1.918767,0.162861,-8.428074,-5.545683
10.248637,-9.605408,-0.007629,0.675176,-0.141306,-8.161029,-5.510956
10.264687,-9.719849,-0.312805,-0.247981,-0.184417,-8.304730,-5.592985
10.280655,-8.674622,-0.198364,-0.499751,-0.062869,-8.358020,-5.629509
10.296312,-7.347107,-0.419617,-0.812556,-0.011975,-8.354427,-5.663040
10.312006,-5.775452,-0.946045,-0.957515,0.080233,-8.351433,-5.606757
10.327621,-5.157471,-0.877380,-0.667598,-0.046104,-8.232880,-5.594183
10.343201,-4.882812,-0.389099,0.156377,-0.007784,-8.233479,-5.616935
10.358784,-5.027771,-0.038147,0.568364,-0.050295,-8.197553,-5.623522
10.374397,-4.791260,0.236511,0.812505,-0.039518,-8.257428,-5.680403
10.390027,-4.005432,0.320435,1.026128,-0.046703,-8.290360,-5.587596
10.405603,-2.944946,0.335693,1.110051,-0.009580,-8.280181,-5.701360
10.421204,-2.449036,0.122070,0.659917,0.015568,-8.274194,-5.676212
10.436776,-2.182007,-0.366211,0.118230,-0.027543,-8.244256,-5.688187
10.452604,-1.991272,-0.213623,-0.095393,-0.064067,-8.198750,-5.695372
10.468378,-2.128601,-0.328064,-0.133540,-0.059875,-8.234676,-5.570831
10.484195,-1.548767,-0.183105,-0.049617,-0.037722,-8.243058,-5.744470
10.499981,-1.060486,-0.389099,-0.278499,-0.010179,-8.259225,-5.724113
10.515924,-0.267029,-0.572205,-0.453975,-0.028141,-8.245454,-5.710940
10.531941,-0.076294,-0.427246,-0.171687,-0.071252,-8.215516,-5.724711
10.547837,0.038147,-0.122070,0.011418,-0.050295,-8.224497,-5.696570
10.563798,0.144958,-0.282288,0.019048,0.128134,-8.241262,-5.692977
10.579702,0.511169,-0.366211,0.240300,-0.060474,-8.232880,-5.870808
10.595605,1.037598,-0.030518,0.286077,-0.026345,-8.234077,-5.712137
10.611321,1.564026,-0.175476,0.194524,-0.022154,-8.206534,-5.733094
10.627023,1.724243,-0.350952,0.003789,-0.050894,-8.237071,-5.689385
10.642764,2.113342,-0.404358,-0.041987,-0.041913,-8.240065,-5.680403
10.658580,2.182007,-0.373840,-0.141169,-0.050894,-8.250243,-5.693576
10.674156,2.471924,-0.244141,-0.133540,-0.030536,-8.253238,-5.689385
10.689691,3.021240,-0.236511,-0.141169,-0.032333,-8.250243,-5.672620
10.705396,3.395081,-0.267029,-0.110652,-0.040715,-8.250842,-5.686391
10.720962,3.845215,-0.335693,0.034307,-0.046703,-8.258027,-5.673817
10.736671,4.188538,-0.259399,0.026677,-0.051493,-8.273595,-5.646275
10.752404,4.470825,-0.305176,0.240300,-0.029938,-8.254435,-5.646275
10.768274,4.730225,-0.305176,0.102971,-0.038320,-8.316706,-5.629509
10.784143,5.256653,-0.274658,-0.087764,-0.046104,-8.296947,-5.622324
10.799951,5.622864,-0.274658,-0.118281,-0.065863,-8.308323,-5.576819
10.815826,6.050110,-0.167847,-0.316646,-0.043110,-8.304132,-5.570232
10.831828,6.675720,-0.404358,-0.362422,-0.027543,-8.301737,-5.583405
10.847721,6.942749,-0.205994,-0.125911,-0.040715,-8.299341,-5.573226
10.863629,7.446289,-0.328064,-0.148799,-0.068258,-8.328082,-5.557659
10.879379,7.820129,-0.305176,0.057195,-0.050295,-8.431067,-5.533709
10.895146,8.697510,-0.160217,2.284978,-0.047900,-8.434660,-5.484611
10.910722,8.872986,-0.137329,0.339482,-0.038919,-8.442444,-5.389409
10.926384,8.834839,-0.228882,0.194524,-0.044308,-8.390951,-5.367255
10.942019,8.102417,0.068665,0.240300,-0.025148,-8.410709,-5.368452
10.957596,7.812500,-0.152588,0.186895,-0.027543,-8.441845,-5.404377
10.973185,8.125305,-0.205994,-0.041987,-0.040117,-8.472382,-5.395396
10.988780,8.972168,-0.411987,-0.179316,-0.059875,-8.540640,-5.386415
11.004398,9.704590,-0.411987,-0.034358,-0.083826,-8.515491,-5.330730
11.020126,9.963989,-0.160217,0.041936,-0.049697,-8.507110,-5.267861
11.035922,9.643555,-0.038147,0.049565,-0.007185,-8.527467,-5.234331
11.051732,9.399414,0.030518,0.217412,0.032333,-8.524473,-5.262473
11.067656,9.262085,-0.129700,-0.179316,-0.055085,-8.642428,-5.201998
11.083470,9.666443,-0.541687,-0.476863,-0.095202,-8.632848,-5.171462
11.099362,9.605408,-0.373840,-0.415828,-0.074844,-8.628057,-5.131944
11.115343,9.262085,-0.114441,-0.316646,-0.026944,-8.598120,-5.250497
11.131260,11.169434,-0.038147,-1.255061,0.168849,-8.804091,-4.555942
11.147142,8.575439,-1.266479,-1.773860,0.096400,-8.904682,-4.600250
11.163112,7.659912,-1.853943,-3.292109,-0.168849,-8.817863,-4.784666
11.178827,4.776001,-2.548218,-3.780391,-0.082628,-8.873548,-4.739161
11.194538,2.258301,-2.677917,-3.604915,0.121547,-8.825048,-4.845140
11.211524,0.152588,-2.792358,-3.032710,0.124541,-8.818462,-4.859510
11.227301,-1.342773,-2.151489,-1.873042,-0.056283,-8.735834,-4.918787
11.243154,-2.639771,-0.495911,2.155278,-0.068258,-8.794512,-4.972675
11.258942,-2.738953,0.976562,2.201055,0.000599,-8.793314,-4.983453
11.274505,-2.967834,1.869202,3.253911,-0.023950,-8.756790,-5.036742
11.290104,-3.074646,1.808167,3.215764,-0.089214,-8.695717,-5.048118
11.305667,-3.242493,1.792908,3.124211,-0.167053,-8.725655,-5.058297
11.321298,-3.494263,2.189636,2.880071,0.033530,-8.696915,-5.147511
11.337071,-3.585815,1.457214,2.124761,0.035925,-8.440647,-5.114580
11.353732,-3.929138,0.625610,1.461003,0.041314,-8.646021,-5.128950
11.369785,-3.913879,-0.511169,0.240300,-0.077838,-8.620274,-5.157092
11.385697,-3.768921,-0.640869,-0.118281,-0.240101,-8.590935,-5.148110
11.401707,-3.784180,-0.373840,-0.827815,-0.068857,-8.637638,-5.139129
11.417388,-3.723145,-0.961304,-1.598384,0.004790,-8.619676,-5.133740
11.433001,-3.936768,-1.205444,-1.560237,0.041913,-8.612491,-5.158289
11.448946,-3.730774,-0.823975,-0.827815,0.059277,-8.533455,-5.212776
11.464809,-3.707886,-0.091553,0.766729,0.009580,-8.534054,-5.225948
11.480963,-3.356934,0.434875,1.628850,0.016166,-8.536448,-5.268460
11.496952,-2.563477,0.343323,1.857732,-0.025148,-8.550220,-5.273250
11.512748,-2.281189,0.198364,1.262639,-0.150886,-8.554411,-5.243911
11.528355,-1.983643,0.160217,0.698064,-0.108973,-8.548424,-5.237924
11.544025,-1.914978,-0.068665,0.171636,-0.044308,-8.523275,-5.409167
11.560022,-1.708984,-0.190735,-0.263240,-0.049098,-8.504116,-5.249899
11.575559,-1.647949,-0.663757,-0.583674,-0.007784,-8.513097,-5.254090
11.591148,-1.411438,-0.816345,-0.675227,-0.052092,-8.512498,-5.288818
11.607011,-1.152039,-0.511169,-0.888850,-0.037123,-8.520282,-5.313367
11.622954,-0.862122,-0.579834,-0.583674,0.000000,-8.524473,-5.279837
11.638686,-0.259399,-0.099182,-0.263240,0.055085,-8.493338,-5.307379
11.654277,0.236511,-0.236511,0.225042,0.005389,-8.537047,-5.311571
11.670134,0.465393,0.099182,0.804875,0.023950,-8.504116,-5.302589
11.686171,0.686646,0.007629,1.026128,-0.079634,-8.502319,-5.285824
11.701946,0.778198,0.038147,0.606511,-0.052690,-8.510702,-5.313367
11.717979,0.968933,-0.099182,0.217412,-0.060474,-8.489147,-5.308577
11.733918,1.182556,-0.404358,-0.125911,-0.070054,-8.522677,-5.306181
11.750714,1.701355,-0.350952,-0.507380,-0.029938,-8.523275,-5.264868
11.767302,1.892090,-0.587463,-0.515010,-0.029938,-8.536448,-5.280435
11.783324,1.930237,-0.526428,-0.484492,-0.037123,-8.533455,-5.269658
11.799049,2.220154,-0.358582,-0.209834,-0.035925,-8.529862,-5.276244
11.814664,2.319336,-0.228882,-0.019099,0.008981,-8.537047,-5.294806
11.830325,2.601624,-0.305176,0.202153,-0.002395,-8.547226,-5.287022
11.846370,3.013611,-0.122070,0.492070,0.007185,-8.550220,-5.263670
11.861990,3.334045,-0.091553,0.537847,-0.040715,-8.568182,-5.249899
11.877688,3.654480,-0.106812,0.247930,-0.048499,-8.556806,-5.214572
11.893306,3.654480,-0.228882,-0.171687,-0.079036,-8.574170,-5.188227
11.909031,3.494263,-0.335693,-0.515010,-0.053888,-8.581355,-5.190023
11.924548,3.181458,-0.549316,-0.652339,-0.010179,-8.584349,-5.170863
11.940169,2.845764,-0.404358,-0.621821,-0.027543,-8.638836,-5.182838
11.955759,2.922058,-0.633240,-0.606562,0.034129,-8.629255,-5.152302
11.971404,2.784729,-0.457764,-0.293757,-0.023950,-8.632249,-5.169665
11.987192,2.975464,-0.274658,0.209783,-0.028740,-8.641829,-5.134938
12.003648,2.876282,0.175476,0.370000,-0.049098,-8.631650,-5.131345
12.019659,2.937317,-0.061035,0.575994,-0.032932,-8.623867,-5.091228
12.035296,2.746582,0.000000,0.446294,-0.005988,-8.621471,-5.085840
12.050917,2.510071,-0.015259,0.354741,-0.025148,-8.651409,-5.096617
12.066911,2.555847,-0.328064,-0.202205,-0.080233,-8.644823,-5.137333
12.083032,2.235413,-0.526428,-0.644709,0.017963,-8.734636,-5.058297
12.098668,1.846313,-0.801086,-0.591304,-0.065264,-8.690329,-5.019977
12.114355,1.533508,-0.656128,-0.583674,-0.107776,-8.717273,-5.036742
12.130000,0.839233,-0.114441,-0.278499,-0.004790,-8.709489,-5.029557
12.145744,0.144958,-0.366211,-0.247981,0.046703,-8.674761,-5.025964
12.161479,-0.396729,-0.297546,0.041936,0.035327,-8.715476,-5.052310
12.177244,-0.640869,-0.160217,0.499700,-0.034728,-8.685538,-5.090031
12.193030,-0.877380,0.198364,0.881169,0.055085,-8.687335,-5.077457
12.208697,-1.068115,-0.091553,0.751470,-0.022753,-8.647817,-5.248701
12.224343,-1.197815,-0.091553,0.499700,-0.062271,-8.647218,-5.138530
12.239898,-1.060486,-0.350952,0.049565,-0.087418,-8.632249,-5.134938
12.256188,-7.759094,-0.053406,0.034307,-0.014969,-11.341016,-10.160288
12.272113,-3.379822,3.326416,-4.558589,-0.726888,-9.743538,-5.486407
12.287903,58.540344,3.547668,5.870793,-1.365161,-14.960489,-6.436032
12.303548,114.860535,5.241394,5.725835,0.241298,-9.638157,-6.195931
12.319301,98.617554,-3.997803,3.002141,0.782573,-11.321258,-5.663040
12.335212,108.161926,3.448486,2.284978,0.507744,-8.347840,-4.321829
12.351073,122.673035,-0.762939,6.977056,-1.620829,-10.430909,-6.586319
12.367104,144.271851,5.455017,7.419560,0.332908,-7.713161,-4.848733
12.388328,154.876709,2.143860,8.983586,0.397573,-7.919132,-3.100369
12.404552,164.611816,1.579285,9.311650,-0.710123,-8.099957,-2.656093
12.422041,180.534363,1.365662,8.151982,-0.114961,-7.166497,-2.198644
12.438607,192.817688,4.241943,7.549260,-0.236508,-5.703140,-3.406931
12.456399,171.852112,5.996704,6.900762,-0.452060,-5.947432,-1.001733
12.473980,165.893555,-0.030518,6.214116,0.835263,-1.725612,6.150993
12.490928,117.454529,-6.950378,-6.130244,-0.607137,-2.102228,-5.878592
12.511207,49.186707,6.278992,-2.597835,-1.206491,-5.237309,0.168234
12.529558,60.523987,12.481689,-1.445796,-1.667532,-9.666299,-3.613502
12.545471,85.205078,5.928040,-2.368953,-0.514929,-10.042316,-1.349011
12.561528,112.640381,8.422852,2.429936,-1.901646,-8.398735,-0.936468
12.577618,171.981812,-14.213562,-19.802118,-1.760339,-19.617605,-0.814921
12.593255,117.095947,-10.238647,5.825017,-1.090931,-6.075566,0.178413
12.608947,124.977112,-6.721497,9.700749,5.093608,4.306245,2.238130
12.624947,127.220154,1.884460,-15.903499,0.426313,-9.518406,7.478433
12.640761,83.496094,-10.772705,11.302922,-4.732559,-10.820100,13.240849
12.656600,89.637756,-18.707275,2.170537,0.069456,-8.801098,-4.297878
12.672274,65.711975,15.342712,15.697453,4.384083,-2.284250,1.523217
12.687922,71.052551,-25.863647,-7.076289,-1.392105,-13.736634,4.875046
12.703565,72.494507,-20.851135,10.341619,-0.520917,-6.811436,3.090757
12.719409,69.557190,-21.156311,9.227727,1.954935,-9.526789,4.484658
12.735272,74.279785,-26.206970,8.174870,-3.806285,-10.904524,10.269229
12.751152,98.876953,-14.968872,5.557988,-0.207169,-6.939569,2.029763
12.767175,74.745178,-9.574890,2.185796,0.003593,-10.140512,6.261164
12.783070,67.192078,-6.904602,3.429387,-0.705932,-7.920330,5.206757
12.798959,53.405762,-8.064270,2.284978,-0.332908,-7.617959,6.373131
12.814727,48.324585,-1.136780,1.773809,0.143701,-8.108338,6.632991
12.830569,47.271729,-0.907898,-0.263240,-0.444276,-7.959847,6.606047
12.846227,44.952393,0.457764,-0.911738,-0.171843,-7.822732,6.614429
12.861883,40.977478,5.416870,-2.788569,-0.343087,-7.594008,6.730588
12.877470,36.125183,4.844666,-1.422908,0.026944,-7.405400,6.715619
12.893088,31.089783,5.310059,-1.461055,0.161065,-7.434141,6.813216
12.908682,25.833130,5.195618,-1.613643,0.226928,-7.389833,6.907220
12.924245,20.484924,4.600525,-0.965144,0.167651,-7.427554,6.887462
12.939925,15.983582,3.585815,-1.194026,-0.071252,-7.425159,6.826987
12.955517,12.657166,2.029419,-0.957515,-0.158071,-7.456893,6.807827
12.971327,9.689331,3.326416,-0.614192,-0.330513,-7.528744,6.902431
12.987130,6.858826,1.678467,-0.446345,-0.337698,-7.446115,6.903628
13.003029,4.287720,1.007080,-0.888850,-0.301174,-7.567663,6.897640
13.018896,1.251221,-0.373840,-0.560786,-0.163460,-7.620952,6.941350
13.034752,-3.761292,-1.319885,0.202153,-0.104183,-7.440128,6.905424
13.050709,-4.821777,-2.685547,1.110051,-0.001796,-7.440128,6.920393
13.066698,-9.460449,-3.654480,1.201604,-0.002994,-7.421567,6.925782
13.082663,-13.099670,-3.967285,1.056646,-0.059875,-7.376061,6.825790
13.098609,-16.555786,-3.547668,0.812505,-0.116757,-7.522158,6.674305
13.114597,-19.905090,-2.777100,0.614141,-0.098795,-7.548503,6.797648
13.130336,-24.276733,-1.846313,0.240300,-0.137714,-7.431746,6.780883
13.146079,-29.800415,-1.098633,-0.362422,-0.132924,-7.465276,6.797648
13.161761,-35.240173,-0.183105,-0.972773,-0.112566,-7.585027,6.731785
13.177473,-39.695740,0.404358,-0.721003,0.183818,-7.872429,6.555751
13.193062,-43.006897,2.021790,-0.293757,0.207768,-7.755073,6.370137
13.208913,-46.577454,1.403809,-0.431086,0.069456,-8.882528,7.395804
13.224491,-43.701172,4.249573,-0.049617,0.887355,-6.049221,8.938197
13.240586,-143.539429,-3.608704,-0.240352,1.699266,-5.288203,7.413168
13.256622,-207.855225,-6.996155,-2.506282,-0.701142,-8.612491,7.832895
13.272345,-192.062378,2.807617,-0.553157,1.007106,-10.702145,4.537349
13.287973,-192.512512,4.188538,-4.085567,-0.046703,-11.881692,5.436080
13.303652,-192.253113,9.330750,-3.932979,-0.189805,-9.013058,5.646243
13.319588,-180.603027,4.547119,-0.896479,0.716710,-10.471624,4.864269
13.335407,-162.780762,7.621765,-0.934626,0.658032,-10.462044,4.650513
13.351221,-139.602661,6.904602,-3.070857,-0.222138,-9.407637,4.006253
13.367214,-103.172302,6.996155,-4.444148,-0.390388,-10.015373,3.329061
13.383147,-59.661865,10.940552,0.492070,-0.670605,-7.494016,0.295170
13.398979,-31.829834,24.368286,1.682256,0.786165,-8.914862,-2.890206
13.414969,-16.059875,18.356323,-2.117183,0.086819,-7.636520,-0.041929
13.430892,12.626648,22.796631,2.910588,0.399968,-8.305927,-1.788497
13.446583,37.704468,29.205322,-0.980403,0.801134,-11.194322,-2.345339
13.463228,34.347534,24.063110,-4.695918,-0.808918,-11.914024,-4.657730
13.479039,-8.651733,25.177002,-6.259944,0.628094,-9.817185,-3.239879
13.494845,-44.471741,28.282166,-11.310603,1.098116,-8.255632,-0.801150
13.510557,-76.942444,26.466370,-9.952571,-0.285007,-8.722661,-0.988560
13.526630,-121.864319,32.409668,-4.436519,-0.127535,-10.678195,-0.508359
13.542337,-159.500122,28.854370,-11.722590,0.755629,-11.301498,-0.378429
13.558074,-185.028076,22.918701,-17.047907,-0.473016,-9.317823,0.784353
13.573756,-184.974670,23.857117,-18.741632,0.239502,-9.449550,3.067405
13.589366,-159.393311,19.989014,-16.155268,0.289797,-10.112970,0.989127
13.605054,-150.070190,21.980286,-9.784724,0.930465,-10.600955,2.266271
13.620961,-129.196167,20.919800,-14.263179,-0.293390,-7.665859,2.774015
13.636874,-113.914490,22.521973,-17.574335,0.019160,-7.993977,0.845426
13.652730,-118.469238,23.033142,-18.459345,1.068179,-8.999885,0.177216
13.668622,-129.081726,21.263123,-20.259882,1.126857,-8.180788,-0.417348
13.684513,-242.263794,-58.830261,27.759527,-4.184099,-19.617605,4.348741
13.700376,-192.550659,-11.581421,13.675664,4.373904,6.038443,-11.068599
13.716214,-175.262451,-56.869507,42.537663,10.827285,-8.887918,-19.817604
13.731953,-143.592834,-17.562866,-8.541133,-0.037722,-12.706776,-10.146516
13.747930,-186.279297,-15.556335,44.208500,0.802332,-5.486990,-8.497545
13.763612,-163.764954,14.816284,42.453739,3.583548,-9.465117,-9.605841
13.779295,-172.393799,-15.678406,43.537113,-1.074166,-7.532935,-11.812252
13.795052,-170.593262,1.701355,38.684818,-0.635878,-5.289999,-5.171462
13.810740,-166.694641,4.684448,30.857061,2.208208,-6.890471,-6.304306
13.826306,-172.744751,-6.233215,17.040228,0.638273,-5.197791,-9.493275
13.841916,-171.508789,1.693726,10.234807,-1.274150,-3.757786,-10.068079
13.857455,-175.155640,4.180908,9.448979,-1.740580,-4.113446,-7.299437
13.873128,-168.296814,3.227234,6.298039,-2.150129,-4.871469,-7.773052
13.889129,-160.797119,0.213623,4.520391,-1.543590,-3.706293,-8.630468
13.905135,-159.652710,1.998901,7.289861,-0.601749,-4.479884,-8.776565
13.921013,-156.166077,6.500244,-3.459956,-0.192799,-3.551814,-9.624402
13.936893,-157.661438,2.990723,-7.495906,-0.620909,-1.685495,-9.426813
13.952737,-160.148621,7.881165,-8.953120,0.125739,-0.784968,-7.802989
13.968668,-158.409119,10.032654,-13.675715,-0.138911,-0.128732,-8.004770
13.984601,-149.452209,10.955811,-15.903499,-0.339494,-0.616718,-10.666235
14.000685,-141.807556,9.140015,-15.445735,-0.390987,0.522114,-9.315444
14.016662,-139.846802,12.428284,-13.713862,-0.320334,0.986149,-9.106479
14.032569,-139.991760,12.817383,-15.537288,-0.080233,0.276625,-9.896236
14.048536,-140.777588,11.940002,-12.897517,-0.320933,1.303489,-9.962100
14.064422,-136.688232,8.110046,-6.732966,-0.470621,1.839375,-9.432201
14.080238,-133.384705,3.684998,-4.566218,0.497565,2.826722,-9.106479
14.095913,-126.968384,1.640320,1.071904,0.439486,2.862048,-9.562131
14.111588,-118.690491,-3.524780,3.726933,0.203577,3.506309,-9.174138
14.127189,-108.566284,-5.851746,5.008672,0.674797,3.314108,-9.360950
14.142835,-106.262207,-6.225586,7.671330,-0.338297,3.886518,-8.105960
14.158785,-103.103638,-7.629395,8.113835,-0.120350,4.057762,-8.531674
14.174821,-100.654602,-11.009216,10.906194,-0.141905,3.644022,-8.398750
14.190563,-101.257324,-11.833191,9.387944,-0.074246,5.153483,-7.692220
14.206178,-98.236084,-11.764526,9.120915,-0.240699,5.138515,-7.615579
14.222172,-93.353271,-11.993408,8.350347,-0.399370,5.677992,-8.029918
14.237954,-92.208862,-10.887146,7.526372,0.070653,5.594167,-7.603604
14.253661,-87.394714,-8.415222,7.648442,-0.437091,6.209687,-7.822150
14.269314,-83.694458,-8.255005,5.878423,-0.008383,5.421127,-7.272493
14.284993,-77.026367,-5.882263,4.550908,-0.001796,6.728807,-7.459903
14.300993,-75.325012,-3.578186,4.581426,0.106578,6.521638,-6.806662
14.316963,-68.397522,-2.708435,2.033208,-0.769400,6.565946,-7.068317
14.332854,-65.994263,-0.923157,1.163457,-0.310155,6.771918,-6.514469
14.348837,-60.806274,1.472473,0.125859,-0.071851,6.906039,-7.076101
14.364794,-58.723450,3.219604,-0.339534,-0.068258,6.823411,-6.643800
14.380537,-58.403015,4.058838,-1.537349,-0.214953,6.981482,-6.371367
14.396221,-51.887512,6.652832,-7.457759,1.204695,8.502319,-4.822388
14.411908,-51.986694,4.196167,-12.287166,0.413740,6.082152,-5.219362
14.427493,-22.605896,2.105713,-7.701900,-1.518442,10.584190,-6.645597
14.443179,-27.839661,11.695862,2.338384,0.355660,8.347840,-5.254090
14.458938,-14.282227,6.645203,-0.133540,0.573607,6.963519,-4.975669
14.474952,-9.155273,-4.356384,-1.941707,0.683778,8.055050,-6.124081
14.491081,-14.739990,-5.332947,0.247930,-0.467628,7.030580,-5.475629
14.506731,-7.438660,-5.058289,5.954717,0.088616,7.947872,-5.569634
14.522409,-4.791260,-7.141113,3.086064,0.219144,7.993378,-5.468444
14.538261,3.135681,-8.224487,0.980352,0.022154,7.914342,-5.048118
14.554111,17.532349,-7.781982,0.591252,-0.537083,8.635242,-5.200202
14.569911,28.594971,-2.197266,2.666448,-0.203577,8.020921,-4.853523
14.585839,40.237427,-2.372742,0.392888,-0.231119,7.671846,-5.034347
14.601779,41.130066,-2.128601,-5.329158,0.268242,9.087902,-4.481097
14.617683,33.584595,7.652283,3.032659,-0.305964,6.175558,-6.450402
14.633550,45.097351,10.643005,5.321477,-0.840053,7.301217,-5.506166
14.649542,39.939880,3.234863,-1.674678,0.537083,8.500523,-8.705912
14.665562,35.385132,2.822876,-7.808711,0.563428,7.408993,-7.883223
14.681229,50.720215,3.829956,-0.026729,-1.494492,7.359895,-8.461021
14.696962,55.686951,6.607056,0.148748,0.531694,5.904921,-7.131785
14.712724,66.757202,1.594543,-6.954219,-0.223934,7.101831,-7.452119
14.728495,70.159912,4.203796,-0.835444,0.219743,5.901927,-6.985689
14.744087,78.163147,7.118225,-1.361873,0.001198,6.345604,-7.794607
14.759812,71.708679,3.013611,-4.367854,0.367037,5.451663,-6.244431
14.775399,75.820923,4.165649,-1.743342,-0.346679,5.967191,-7.861668
14.791047,69.007874,5.683899,-1.392390,0.249082,5.264253,-7.026404
14.806662,68.046570,2.891541,-4.688289,0.093406,5.407355,-7.550315
14.822561,70.182800,1.838684,-4.131343,0.404758,5.110373,-7.808977
14.838465,71.304321,3.494263,-2.140071,0.383802,4.700825,-8.150268
14.856116,78.636169,0.938416,-2.803828,-0.356858,5.189409,-9.224434
14.872222,84.442139,-1.983643,-1.285579,-0.861010,4.402046,-8.140687
14.888284,88.439941,-1.014709,-0.049617,-0.963397,3.955974,-8.307740
14.904926,96.824646,-2.746582,0.156377,0.210762,4.083508,-8.677771
14.920771,99.388123,-3.509521,0.995610,0.058079,4.085305,-9.196292
14.936653,99.983215,-2.288818,1.056646,0.332908,3.436254,-8.537063
14.952558,101.745605,-4.844666,1.522039,-0.689167,3.573369,-9.759721
14.968509,100.646973,-2.754211,0.583623,-0.067061,2.629731,-8.376596
14.984549,99.502563,-1.892090,-0.667598,-0.428110,3.557801,-9.072948
15.000381,101.730347,-0.679016,-1.857783,-0.322729,1.933380,-9.274729
15.016274,101.745605,0.823975,-4.261043,-0.474813,1.981280,-9.775887
15.032149,105.651855,1.304626,-4.604365,0.128732,0.973575,-9.720202
15.047986,109.062195,4.608154,-5.992915,-0.386796,0.537682,-9.900428
15.063812,113.670349,0.572205,-5.664851,0.298779,1.190923,-9.833966
15.079496,117.263794,2.372742,-7.488276,0.096400,0.902922,-9.493275
15.095341,120.414734,2.983093,-4.535701,-0.528102,-0.124541,-9.917193
15.110985,125.656128,-1.907349,-2.918269,0.429906,-0.747845,-9.704037
15.126621,121.971130,0.061035,-5.268123,0.056283,-1.177751,-8.898711
15.142163,124.298096,0.541687,-3.253963,-0.070653,-1.545985,-9.665716
15.157708,124.740601,0.068665,-1.682307,-0.365240,-1.416654,-9.493275
15.173311,123.901367,-1.945496,-2.109553,0.853824,-2.746489,-9.141207
15.189102,122.444153,-0.213623,-4.512813,-0.449665,-2.523153,-8.880150
15.204941,130.615234,-0.961304,0.362371,-0.523911,-3.429069,-10.442301
15.220806,133.079529,-2.281189,2.307866,-0.176034,-3.130889,-9.395079
15.236630,133.270264,-0.038147,-3.124263,1.668131,-3.683540,-9.330413
15.252527,134.880066,-0.183105,-6.198909,0.606539,-4.841532,-8.780756
15.268919,135.581970,-2.586365,-4.863765,-0.371827,-3.721262,-8.833447
15.284824,136.154175,-1.800537,0.827764,-0.716710,-4.191883,-8.263432
15.300694,135.650635,-0.717163,5.222295,-0.101190,-5.643265,-8.796324
15.316606,136.535645,1.838684,-0.576045,0.516127,-5.725893,-8.463416
15.332495,133.697510,-2.571106,-4.276301,-1.055605,-6.249205,-8.149070
15.348171,136.894226,-1.670837,-0.370051,-0.302970,-6.077362,-7.925136
15.363851,140.113831,2.349854,0.125859,0.415536,-7.293433,-8.448447
15.379506,143.157959,0.289917,0.873540,0.468226,-5.500761,-7.296443
15.395164,140.945435,0.534058,-2.018001,0.275427,-7.970026,-6.395317
15.410776,138.801575,-2.449036,-0.171687,-0.965193,-9.196277,-5.769019
15.426445,139.358521,0.541687,0.133489,-0.850232,-8.759185,-6.736607
15.442023,136.619568,-1.159668,0.179265,0.204175,-8.425678,-4.794845
15.457673,132.713318,0.251770,-1.819636,-0.295186,-8.119116,-5.176252
15.473375,136.169434,-1.380920,0.446294,0.102986,-19.617605,-11.041056
15.489302,145.271301,-20.782471,-28.591181,-4.646338,-5.592371,-6.549197
15.505103,140.159607,-22.094727,-38.639095,-2.784210,-19.617605,2.165082
15.521345,97.335815,-16.105652,-44.605282,0.247885,-17.883612,2.729109
15.537107,80.703735,-13.557434,-18.955256,-0.310155,-6.556366,-1.754368
15.553002,73.379517,4.043579,11.714910,-0.443677,-8.211924,0.708311
15.568871,43.754578,9.773254,15.407537,0.914299,-10.411150,-1.510674
15.584691,4.661560,7.972717,12.554143,1.232238,-11.009306,-1.154415
15.600414,-36.560059,-11.528015,-7.831599,-0.205972,-8.466394,-0.737682
15.616157,-57.212830,-10.818481,-17.955805,-0.578996,-8.786728,0.435279
15.631897,-67.085266,-8.575439,-11.089351,-0.168250,-10.817105,0.647837
15.647569,-68.832397,0.175476,7.099126,0.837059,-8.719069,-0.157488
15.663173,-71.846008,2.128601,22.510504,4.513414,-4.879852,-3.151263
15.679003,-86.189270,-11.978149,12.836431,0.266446,-6.910829,-0.644276
15.695071,-101.875305,-18.432617,-3.040339,4.666097,-14.771283,-2.256723
15.710697,-74.279785,-17.082214,-20.305658,2.008224,-7.326963,-2.025005
15.726271,-96.343994,-21.171570,11.829350,-3.778742,-7.122788,-6.268381
15.741851,-67.962646,4.272461,24.318670,-1.031056,-7.568262,-7.794607
15.757421,-63.613892,7.469177,28.820013,0.135319,-10.351873,-8.252056
15.773231,-54.420471,12.252808,18.032049,-1.566941,-8.108338,-6.653380
15.789103,-53.321838,-2.494812,15.903447,-1.092129,-8.844807,-5.945652
15.804925,-53.619385,0.488281,9.044621,0.569416,-7.944879,-5.022372
15.820851,-53.184509,6.416321,8.022283,-0.401765,-7.772437,-5.769019
15.836753,-57.167053,0.465393,3.604863,-0.850232,-6.953341,-6.221079
15.852823,-60.813904,-2.670288,1.110051,-0.260458,-7.511979,-6.651584
15.868700,-62.408447,2.693176,0.095342,-0.057480,-7.342531,-6.971319
15.884781,-58.753967,-0.076294,-2.735164,-0.919688,-7.856263,-7.119810
15.900636,-54.168701,-2.296448,-4.581477,-0.259860,-7.618557,-7.147353
15.916519,-50.086975,-0.617981,-7.465388,0.193997,-6.846163,-7.073706
15.932296,-48.919678,-1.144409,-9.609248,-0.438887,-7.110813,-7.266505
15.947943,-48.591614,-2.326965,-7.595088,-0.339494,-6.531817,-7.183278
15.963641,-49.293518,-0.801086,-3.520991,0.228126,-6.036647,-7.366497
15.979379,-50.834656,-0.953674,-2.117183,0.858615,-6.671327,-7.661684
15.995042,-49.636841,-1.228333,-0.736262,-0.365839,-6.396498,-7.788021
16.010651,-47.348022,-0.778198,3.070806,-0.151485,-6.436016,-7.982017
16.026226,-45.219421,0.823975,4.436467,-0.537682,-6.269562,-8.110150
16.041858,-41.870117,0.801086,6.526921,0.057480,-5.984555,-8.010757
16.057475,-39.718628,-0.442505,4.894231,-0.136516,-5.706134,-7.916154
16.073285,-40.153503,1.152039,2.552007,-0.241298,-5.721103,-8.413120
16.089117,-38.803101,0.045776,2.544377,0.034129,-5.155878,-8.332289
16.105014,-39.138794,1.045227,0.888799,-0.170046,-5.173242,-8.096379
16.120843,-38.650513,-1.022339,-1.140620,-0.147892,-5.666018,-8.176014
16.136684,-36.537170,0.205994,-2.140071,-0.380808,-5.249284,-8.301153
16.152508,-34.385681,-0.175476,-1.239802,-0.277822,-5.488187,-8.416115
16.168481,-31.356812,-0.007629,-0.995662,-0.204774,-5.222340,-8.466410
16.184199,-29.083252,0.259399,-1.003291,0.021555,-5.019362,-8.555026
16.199923,-29.197693,0.358582,-0.255610,-0.167651,-5.002597,-8.484372
16.215577,-29.342651,0.343323,0.644658,0.044907,-5.053491,-8.549038
16.231308,-27.076721,-0.495911,0.781987,-0.047302,-5.045109,-8.592747
16.247027,-25.726318,0.381470,0.789617,-0.102986,-4.842730,-8.844224
16.262664,-22.224426,-0.175476,0.858281,-0.206570,-5.061275,-8.744831
16.278526,-19.996643,-0.457764,0.247930,-0.122146,-4.663103,-8.910088
16.294411,-17.524719,-0.961304,0.499700,-0.454455,-4.252956,-8.637055
16.309952,-15.907288,-1.075745,0.545476,0.345482,-4.439169,-8.647833
16.325570,-16.197205,-1.777649,-0.278499,-0.196990,-3.947591,-8.541853
16.341204,-16.967773,-0.885010,2.399419,-0.206570,-4.471501,-8.686153
16.357004,-14.953613,-0.411987,2.109502,0.282612,-4.678072,-9.023850
16.372829,-11.001587,-0.373840,0.553105,-0.374222,-4.535568,-9.080732
16.388593,-7.537842,-0.762939,1.956914,-0.283810,-4.471501,-9.032832
16.404406,-5.340576,-0.114441,2.078984,0.005988,-4.446952,-8.805305
16.420210,-3.318787,0.114441,0.461553,-0.184417,-4.205654,-8.704116
16.436018,-2.754211,-0.297546,0.575994,-0.241298,-4.137396,-8.697529
16.451750,-2.777100,0.076294,0.255559,-0.035327,-4.254153,-8.747825
16.467564,-2.189636,-0.343323,-1.415278,-0.088616,-4.281696,-8.860990
16.483280,-0.267029,0.061035,-2.018001,-0.268242,-4.313430,-8.842428
16.498903,2.265930,0.656128,-1.361873,-0.227527,-4.143982,-8.957988
16.514623,3.372192,0.549316,-1.667048,0.000599,-4.157155,-8.943618
16.530289,5.561829,0.305176,-2.124812,-0.150287,-4.306844,-9.048999
16.545877,6.546021,0.221252,-1.461055,-0.043709,-4.439767,-8.929248
16.561442,8.483887,-0.076294,-1.422908,-0.149689,-4.551734,-8.865780
16.577193,10.917664,-0.061035,-1.354243,-0.149090,-4.519402,-8.799916
16.593817,13.153076,-0.267029,-0.804927,-0.114961,-4.457730,-8.762794
16.610289,14.495850,-0.167847,-0.515010,-0.017963,-4.439169,-8.693338
16.626041,14.739990,-0.251770,-0.461604,-0.056283,-4.488865,-8.626876
16.641876,15.037537,-1.953125,-0.232722,-0.105381,-4.638554,-8.605920
16.657697,16.159058,1.930237,-0.392939,-0.101788,-4.702621,-8.735250
16.673375,18.188477,-0.114441,-0.377681,-0.152084,-4.797823,-8.805904
16.689006,20.256042,-0.541687,-0.247981,0.025746,-4.824767,-8.734653
16.704953,22.506714,-0.144958,-0.995662,-0.004790,-4.823569,-8.633463
16.720815,23.956299,-0.556946,-0.156428,-0.211959,-4.881050,-8.541853
16.736734,24.757385,-0.503540,0.621770,-0.002994,-4.931345,-8.508922
16.752535,27.084351,-0.740051,-0.087764,-0.126337,-5.004393,-8.418509
16.768206,25.878906,-0.289917,-0.003840,-0.334105,-5.103188,-8.408930
16.784162,26.794434,-0.015259,0.164006,-0.022753,-5.240901,-8.461021
16.799953,28.320312,0.137329,-1.537349,-0.117955,-5.301376,-8.396356
16.817156,30.235291,-0.076294,-1.171138,-0.198787,-5.351072,-8.179008
16.833014,32.081604,-0.427246,-0.606562,-0.028740,-5.423522,-8.314326
16.848689,33.020020,-0.175476,-3.421809,-0.083826,-5.667814,-8.216130
16.864305,33.615112,-0.823975,-1.873042,-0.071851,-5.703140,-8.086800
16.880366,34.454346,-0.030518,-1.743342,-0.176633,-5.635481,-8.037103
16.896150,35.034180,-0.305176,-0.705745,-0.169448,-5.824687,-8.037103
16.911803,35.575867,-0.274658,-0.698115,0.153281,-5.909711,-7.952678
16.927576,36.285400,-0.381470,-0.675227,-0.191602,-6.106102,-7.929327
16.943166,38.223267,-0.183105,-0.309016,-0.034129,-6.152206,-7.865859
16.958836,38.978577,-0.724792,-0.507380,0.060474,-6.239625,-7.836520
16.974657,40.031433,-0.160217,-0.186946,-0.204774,-6.290519,-7.757484
16.990569,40.122986,-0.900269,0.583623,0.079634,-6.439010,-7.540735
17.006403,40.336609,-0.259399,-1.163508,-0.134121,-6.504873,-7.543130
17.022205,40.962219,-0.556946,-0.865962,-0.423320,-6.400091,-7.353324
17.038278,40.489197,-0.297546,-0.637080,0.061672,-6.827602,-7.338356
17.054169,41.442871,-0.144958,-3.337886,-0.043709,-6.847960,-7.368293
17.070276,42.884827,-0.854492,-1.216914,0.033530,-6.994655,-7.286863
17.086564,43.594360,-0.503540,-0.057246,0.004790,-7.056925,-7.036583
17.103395,44.136047,-0.038147,0.102971,-0.070054,-7.374864,-6.806063
17.119495,44.525146,-0.434875,-0.949885,0.109572,-7.140751,-6.854562
17.135412,44.174194,-0.534058,-1.430537,-0.352068,-7.441925,-6.688707
17.151000,44.197083,1.762390,0.301335,-0.159269,-7.364685,-6.547400
17.166617,44.631958,0.373840,0.751470,0.193997,-7.688612,-6.645597
17.182583,45.486450,-0.656128,-0.171687,-0.057480,-7.861651,-6.437829
17.198549,45.791626,-0.274658,-0.316646,-0.223336,-7.798782,-6.101927
17.214233,45.845032,-0.114441,0.453923,-0.184417,-7.872429,-6.170185
17.229826,45.753479,0.213623,0.377629,-0.122146,-8.122110,-5.902542
17.245446,45.654297,0.000000,-0.301387,0.050894,-7.985594,-5.889369
17.261002,44.807434,-0.503540,-0.766780,-0.027543,-8.251441,-5.739081
17.276650,45.768738,-0.419617,-0.629451,-0.111967,-8.054451,-5.734292
17.292585,45.501709,-0.160217,0.499700,-0.074844,-8.430469,-5.667830
17.308940,45.516968,0.030518,0.141118,-0.081431,-8.283175,-5.443296
17.325095,45.806885,-0.320435,0.186895,-0.367635,-8.510103,-5.294207
17.340912,45.219421,-0.122070,-0.011470,-0.100591,-9.420211,-5.158289
17.356616,53.176880,4.577637,-8.159663,0.592767,-7.034771,-2.682438
17.372397,43.220520,-2.014160,-5.649592,0.786165,-9.117840,-3.172219
17.388403,40.420532,-3.189087,-7.503535,0.338895,-9.289083,-3.779357
17.404255,34.896851,-6.141663,-12.035396,-0.440085,-8.929831,-4.658927
17.420177,29.479980,-9.376526,-12.844111,-0.599354,-9.339977,-4.797240
17.435941,22.529602,-7.934570,-11.310603,-0.249082,-9.162148,-4.105678
17.451873,18.684387,-2.548218,-9.609248,0.933459,-8.748407,-4.711020
17.467518,9.025574,-3.044128,-7.427241,0.254471,-10.061477,-3.415314
17.483224,3.021240,-0.236511,-2.140071,0.570015,-8.805289,-3.952397
17.498974,-5.332947,1.548767,1.758550,0.759820,-9.411229,-4.000896
17.514664,-10.864258,2.700806,4.154180,0.821492,-8.863967,-4.338594
17.530267,-14.030457,2.204895,6.412480,-0.070054,-9.269324,-4.161961
17.545907,-15.846252,2.769470,7.205937,0.301772,-8.951385,-4.592466
17.561755,-15.830994,2.838135,8.220647,-0.226329,-9.616003,-4.766105
17.577315,-41.625977,9.391785,6.214116,-0.364043,-14.566509,-6.546802
17.593062,15.220642,12.222290,11.692021,-1.665137,-10.790760,-2.925532
17.609236,86.601257,15.014648,17.772650,0.547262,-13.958773,-6.847975
17.624868,104.057312,3.982544,14.957402,-0.084424,-8.881331,-7.998184
17.640479,97.290039,0.923157,8.487676,-0.581391,-10.116563,-3.120726
17.656260,107.757568,3.044128,7.923100,0.557441,-7.873028,-4.044605
17.672243,131.805420,0.015259,8.640264,-1.210682,-10.206376,-5.230739
17.688187,145.729065,5.645752,9.975408,-0.188608,-7.288643,-3.335081
17.704153,154.396057,1.609802,7.083867,-0.123942,-8.155042,-4.499659
17.720139,167.190552,0.755310,7.328008,-0.538281,-9.136401,-4.269138
17.736032,181.961060,0.549316,7.236455,-0.380808,-7.416777,-1.968123
17.751959,178.390503,-1.663208,7.205937,-0.916694,-5.624703,-2.886613
17.767872,163.345337,5.363464,4.611943,0.484991,-5.312153,0.350854
17.783593,147.819519,-2.876282,4.924748,-0.835862,-3.050656,-1.825021
17.799489,104.087830,-10.612488,-13.736751,-0.532293,-3.738027,-4.984650
17.815409,57.563782,7.873535,-12.668635,-0.442480,-5.728887,-0.039534
17.831936,54.664612,11.718750,-7.465388,-0.612526,-7.566465,0.519105
17.848032,75.469971,15.495300,-8.068110,-0.937650,-9.537566,-1.525045
17.864072,99.967957,7.682800,-8.502986,-1.331032,-9.721983,-0.103002
17.879787,181.297302,-2.609253,-6.565120,-1.879492,-19.617605,17.374054
17.895532,126.976013,13.038635,-11.280086,2.579436,-13.486355,0.869376
17.911362,85.433960,-12.275696,7.137273,1.733994,2.557282,0.909493
17.927355,84.640503,2.075195,1.865361,-3.603307,2.229763,-1.760355
17.943110,80.566406,-0.587463,0.942205,-0.549058,-19.617605,12.087049
17.958698,94.879150,-66.825867,22.266363,5.965994,-5.265450,7.485019
17.974267,73.829651,7.026672,12.287114,0.974174,-4.321813,3.595507
17.989957,51.445007,9.262085,8.708928,1.398093,-11.051818,6.911412
18.005786,70.220947,-38.223267,-6.221797,-3.934418,-11.506871,6.530603
18.021610,73.616028,-28.869629,9.960149,-0.216749,-6.282735,1.251382
18.037472,62.240601,-24.612427,10.341619,0.119152,-10.505754,6.473123
18.053559,69.366455,-27.565002,2.277349,0.689766,-8.198152,6.280923
18.069434,70.793152,-18.066406,12.142156,-0.653242,-9.355545,5.858202
18.085290,59.928894,-14.999390,8.327458,0.150287,-7.385043,6.418636
18.100865,55.305481,-19.172668,5.084966,-0.467628,-8.459209,5.849819
18.116408,42.762756,-6.301880,3.002141,0.086819,-8.010143,5.781561
18.132097,40.748596,-2.059937,2.346013,-0.482596,-8.365803,6.194702
18.147723,37.261963,-4.058838,0.308965,-0.117356,-8.210127,6.123450
18.163317,34.912109,0.991821,-0.728633,-0.058678,-7.913145,6.100099
18.178875,31.303406,4.501343,-1.628901,-0.172441,-8.032895,6.490487
18.194448,27.976990,3.486633,-1.750972,0.037123,-7.965835,6.386902
18.210085,23.292542,4.180908,-2.086665,0.161065,-7.770042,6.609041
18.225754,16.777039,5.050659,-2.117183,0.134720,-7.813751,6.554554
18.241618,10.040283,4.943848,-1.758601,0.019759,-7.783813,6.674903
18.257431,5.256653,4.356384,-1.850154,-0.154479,-7.745493,6.683286
18.273245,1.541138,3.753662,-1.392390,-0.302970,-7.717352,6.604250
18.289158,-2.159119,3.295898,-1.102473,-0.165256,-7.753876,6.495277
18.305441,-6.286621,3.265381,-1.163508,-0.168849,-7.765252,6.599461
18.321458,-11.650085,2.044678,-0.896479,-0.247885,-7.873028,6.641972
18.337263,-14.076233,-0.068665,-0.354792,-0.126936,-7.767647,6.468932
18.352936,-18.623352,-1.457214,0.225042,-0.090412,-7.869435,6.430612
18.368550,-22.453308,-2.220154,1.033757,-0.046104,-7.908953,6.398878
18.384170,-26.321411,-3.692627,1.041387,-0.094005,-8.055050,6.324632
18.399806,-30.471802,-4.219055,1.201604,-0.107776,-7.877818,5.930651
18.415443,-33.821106,-4.028320,1.399968,-0.083227,-8.271799,6.065970
18.431101,-38.261414,-3.326416,0.934575,-0.108973,-8.228089,5.972564
18.446676,-43.197632,-2.410889,0.232671,-0.229323,-8.243058,5.907898
18.462225,-47.332764,-3.036499,0.125859,-0.154479,-8.452024,5.894127
18.477815,-51.467896,-1.533508,-0.751521,0.038919,-8.234077,5.591756
18.493464,-56.129456,-0.328064,-0.598933,-0.058678,-8.501122,5.637860
18.509402,-59.265137,-0.457764,-0.309016,0.198188,-8.695717,5.381593
18.525433,-58.303833,0.778198,-0.865962,-0.162861,-6.785689,3.987692
18.541587,-68.000793,3.631592,2.277349,-0.817300,-7.031777,3.573353
18.557639,-174.499512,-7.041931,-3.070857,0.149689,-8.265811,3.833213
18.573538,-213.577271,-3.036499,1.163457,-0.466430,-10.968591,5.024137
18.589303,-200.096130,4.707336,-4.795100,0.352068,-11.825409,4.152948
18.604876,-187.736511,4.570007,-5.001094,-0.505948,-11.127859,3.633827
18.620830,-186.462402,8.926392,-0.499751,0.192200,-9.668694,3.981704
18.636763,-182.159424,8.872986,-1.308467,0.231718,-9.265732,2.930290
18.652712,-159.912109,9.857178,-0.446345,0.255668,-11.384127,3.858361
18.668633,-122.711182,12.176514,0.202153,-0.317939,-9.754914,2.238729
18.684414,-107.177734,16.105652,-1.361873,0.175435,-9.473499,1.729188
18.700160,-62.904358,15.960693,-2.048518,0.286804,-6.110892,1.095107
18.715896,-41.351318,26.336670,3.787969,-0.061073,-8.017328,-2.830330
18.731602,-34.568787,25.024414,-0.659968,-0.103585,-6.286926,-4.908010
18.747183,-9.552002,30.776978,-5.008723,0.467628,-7.071295,-4.625397
18.763056,18.180847,33.317566,-6.275203,0.518522,-11.722424,-3.178207
18.778601,6.553650,35.652161,-9.258296,0.097597,-11.721825,-3.288976
18.794314,-42.137146,38.604736,-10.700252,0.204175,-7.717950,-4.367933
18.810525,-78.277588,39.863586,-10.036494,0.802930,-6.033653,-2.847095
18.826317,-112.304688,38.871765,-18.802668,0.555046,-8.545429,-2.134577
18.842003,-162.582397,35.377502,-21.640802,-0.088017,-9.839339,-1.611864
18.857781,-206.581116,23.841858,-18.077875,1.019680,-7.188651,-0.934074
18.873845,-236.137390,20.050049,-18.962885,3.300337,-19.617605,-18.888338
18.889664,-190.361023,23.727417,50.724003,4.459527,1.256188,-19.817604
18.905575,-244.758606,64.224243,22.159552,6.397696,-19.617605,19.417006
18.921701,-236.236572,-47.134399,14.392827,6.740184,-3.524271,4.758888
18.937578,-198.677063,18.905640,41.568729,-0.637075,-8.113129,2.282438
18.953510,-186.851501,22.262573,43.109867,8.626861,-6.479725,-6.466568
18.969408,-182.716370,-11.734009,39.821598,1.468746,-9.160950,-10.007007
18.985477,-176.063538,24.337769,19.779181,1.146017,-6.935378,-10.438109
19.001244,-172.767639,-10.673523,23.616766,-1.423839,-5.759423,-10.578817
19.016975,-175.094604,1.869202,19.718145,0.516127,-5.154681,-8.119132
19.032768,-179.130554,-2.494812,20.511602,0.305964,-5.692961,-7.181482
19.048513,-183.372498,9.674072,9.601567,0.455054,-5.239105,-7.963456
19.064128,-178.077698,0.709534,-6.290462,-0.361648,-4.545148,-10.050715
19.079712,-174.423218,-3.837585,-8.960750,-1.675915,-3.289559,-8.584964
19.095281,-169.952393,5.119324,-1.361873,-1.674119,-4.356541,-8.767584
19.110871,-164.482117,1.762390,1.445745,-1.501677,-3.408113,-8.538859
19.126741,-168.350220,0.686646,-4.955317,0.174836,-1.322051,-8.170026
19.142812,-165.931702,1.998901,-4.215266,-0.467029,-1.644181,-8.838836
19.158811,-158.271790,8.590698,-4.474666,-0.520318,-2.136357,-9.817201
19.175011,-154.853821,6.698608,-11.661555,-1.279539,-1.006507,-9.258563
19.190778,-153.724670,5.775452,-12.264277,-0.911904,-0.997526,-8.200562
19.206825,-151.176453,7.080078,-3.704097,-0.384999,0.231119,-8.217328
19.222722,-146.858215,7.705688,-4.711177,-0.131726,1.134042,-9.951322
19.238669,-145.317078,6.546021,-11.364009,0.651445,1.614243,-9.623204
19.254559,-145.439148,10.231018,-10.738399,0.177830,0.573008,-7.995789
19.270401,-137.588501,10.688782,-7.076289,0.140109,1.299298,-10.816523
19.286369,-135.444641,6.050110,-6.801631,-0.353864,2.284849,-8.841230
19.302268,-131.431580,2.449036,-3.322627,0.390388,3.209925,-8.771176
19.318558,-122.215271,0.679016,0.682805,0.633483,3.797303,-9.435794
19.334443,-118.141174,-0.465393,1.949285,-0.168849,3.542234,-8.341869
19.350245,-111.785889,-3.143311,2.323125,0.456850,2.930905,-8.930445
19.365974,-106.536865,-6.546021,7.274602,0.350870,4.664899,-8.765787
19.381617,-103.988647,-8.338928,5.580876,-0.016166,4.421206,-7.683239
19.397260,-103.431702,-11.146545,7.076238,-0.350272,4.845723,-8.199366
19.412831,-98.823547,-11.337280,9.113286,-0.536484,5.188810,-7.483853
19.428581,-97.747803,-12.016296,9.098027,0.009580,5.277426,-7.723954
19.444199,-93.147278,-11.375427,7.892583,-0.646057,6.739585,-7.523970
19.460497,-91.438293,-11.573792,7.831548,-0.632884,6.429430,-7.375479
19.476509,-84.915161,-9.277344,6.069158,-1.194516,6.073171,-7.217407
19.492373,-79.193115,-7.919312,5.763982,-0.798739,6.194119,-7.047960
19.508012,-75.225830,-6.759644,4.062627,-0.074246,5.490582,-6.205512
19.524111,-69.404602,-4.676819,3.643010,-0.171244,6.903045,-6.821032
19.539815,-65.856934,-3.532410,3.490422,-0.337698,6.913224,-6.624041
19.555406,-63.247681,-1.396179,1.834844,-0.630489,7.285649,-4.405654
19.571098,-62.225342,-3.219604,-9.326961,-0.449066,8.534652,-5.370847
19.586690,-49.507141,0.022888,-11.333491,-0.108973,6.618637,-5.321150
19.602389,-33.126831,1.335144,-1.674678,-2.372267,8.647218,-4.331409
19.618065,-37.170410,12.413025,5.481694,0.117356,7.566465,-4.132622
19.633768,-19.218445,5.126953,1.209233,0.153880,6.819818,-5.772612
19.649481,-21.316528,-3.768921,-2.857234,-0.277223,8.002957,-5.430124
19.665046,-24.299622,-2.700806,0.698064,-0.254471,6.914422,-5.139728
19.680601,-15.548706,-0.740051,5.191777,0.105381,8.601712,-5.689385
19.696167,-13.587952,-2.143860,2.620671,-0.101190,7.328760,-5.495388
19.711854,-1.037598,-3.807068,-0.919368,0.293989,8.594527,-4.796042
19.727811,11.222839,-3.295898,-0.782039,-0.378413,8.824450,-5.041532
19.743833,20.858765,1.724243,1.491521,-0.273032,7.847880,-4.821190
19.759789,29.342651,-0.228882,-0.278499,-0.137115,7.791597,-4.971478
19.775741,29.502869,-1.777649,-3.437068,-0.386796,7.599996,-5.082247
19.791574,31.455994,-1.289368,-1.873042,-0.376617,7.490424,-5.257682
19.807384,34.805298,-0.137329,-0.125911,-0.178429,7.723938,-5.228343
19.823526,39.649963,-0.083923,-2.529170,0.629890,7.989785,-5.958226
19.839448,37.475586,8.110046,3.398870,-0.146096,6.686894,-6.825821
19.855253,53.215027,13.320923,7.289861,-0.835263,7.349117,-5.852845
19.871358,42.205811,1.548767,-6.374385,-2.132166,7.661069,-5.908529
19.887219,66.581726,3.257751,-8.960750,-0.026944,6.036647,-7.273091
19.903172,66.795349,5.836487,3.108953,-0.335303,6.743776,-6.370768
19.918850,77.117920,4.295349,-4.970576,-0.228724,6.088738,-7.135378
19.934599,77.072144,2.838135,-5.191829,-0.176034,6.530021,-7.598814
19.950476,79.872131,3.684998,0.308965,-0.334704,5.532495,-7.459903
19.966309,76.011658,4.081726,-3.002192,0.583786,5.825885,-6.387533
19.981933,76.469421,1.693726,-5.390193,0.226928,5.525909,-6.982695
19.997529,75.805664,4.531860,-2.597835,0.479603,5.562433,-7.402422
20.013064,82.901001,2.456665,-1.659419,0.682581,5.442682,-8.347857
20.028688,82.031250,2.395630,-5.374934,0.118553,5.243297,-7.533550
20.045261,87.921143,3.196716,-1.705195,0.426912,4.664899,-8.846021
20.061221,91.140747,-0.312805,-1.171138,-0.438289,4.455934,-8.564007
20.077790,90.713501,-1.052856,-2.277400,-0.195793,3.479963,-8.413719
20.093674,101.425171,-2.243042,-0.164058,0.555645,4.097280,-9.462738
20.109383,102.912903,-3.028870,0.919316,-0.025746,3.556604,-8.710702
20.125081,108.116150,-2.326965,0.888799,-0.565823,3.596721,-8.792132
20.141268,110.717773,-3.837585,1.972173,-0.846041,2.376458,-8.429886
20.157256,114.189148,-3.166199,0.820134,-0.597557,2.883005,-10.095622
20.173151,108.383179,-1.197815,-0.545527,0.202379,2.347119,-9.281914
20.189010,109.809875,0.442505,-1.148250,-0.089813,1.671724,-9.290297
20.204786,112.571716,0.114441,-2.590205,-0.155676,1.501078,-10.010599
20.220711,113.861084,2.319336,-6.977107,0.386197,1.068179,-9.365740
20.236387,118.255615,4.661560,-5.100276,0.176633,1.282533,-9.794448
20.252101,122.009277,3.692627,-8.449580,0.353265,0.638273,-9.863305
20.267720,125.617981,2.906799,-7.328059,-0.328118,0.150287,-9.516027
20.284172,130.271912,0.350952,-4.734065,0.413141,-0.507744,-9.971081
20.300082,130.271912,0.366211,-6.145503,-0.427511,-0.971180,-8.915476
20.315777,131.423950,0.541687,-3.856685,0.209564,-1.380130,-9.793251
20.331603,132.118225,0.221252,-1.689937,-0.234113,-1.616638,-9.217847
20.347685,135.490417,-2.304077,-2.658870,1.109493,-2.147734,-9.686672
20.363625,132.293701,0.839233,-4.528071,0.036524,-2.181863,-8.199964
20.379325,132.530212,-1.525879,0.705693,-0.208367,-3.101550,-9.094503
20.395299,138.549805,-1.281738,1.499150,0.526306,-3.587739,-9.626198
20.410900,140.464783,-1.716614,-2.742793,0.724493,-4.125421,-9.220243
20.426761,142.433167,-3.623962,-2.956416,0.213755,-4.529581,-9.137015
20.442592,145.553589,-2.143860,-0.682856,-0.710123,-4.775070,-8.628074
20.458486,144.645691,-2.716064,4.993413,0.004790,-4.998406,-7.390448
20.474329,142.311096,0.701904,1.621221,0.854423,-5.540878,-8.681962
20.490662,146.163940,-1.075745,-3.238704,-0.645458,-5.157675,-7.950882
20.507070,143.524170,-2.014160,-0.583674,-1.100511,-6.727610,-7.929327
20.524256,143.417358,0.244141,-1.346614,-0.386197,-6.962322,-7.846699
20.540430,147.972107,0.396729,-0.095393,-0.467029,-6.139034,-7.317400
20.556163,146.995544,0.961304,-2.391841,-0.841251,-7.779622,-6.478544
20.571776,145.568848,-2.517700,0.293706,-0.438289,-8.214318,-5.691181
20.587595,147.308350,-0.190735,-0.858333,-0.462239,-7.053931,-5.447488
20.603623,141.830444,-2.189636,-1.377131,-0.211959,-8.460406,-4.958305
20.619500,142.776489,-1.464844,-1.110103,-0.179626,-9.683662,-4.952916
20.635335,160.430908,6.477356,-15.064265,3.456013,-14.764098,3.616464
20.652206,141.883850,-13.809204,-28.774286,-1.189726,-14.822776,-4.185312
20.667864,153.266907,-6.340027,-35.175350,1.271755,-11.767928,-3.091387
20.683826,95.664978,-11.917114,-25.707270,-1.257385,-11.503878,1.766910
20.699618,87.654114,-1.701355,0.339482,-0.708926,-5.935457,0.952004
20.715402,81.237793,9.567261,14.759038,-0.627495,-7.853269,-2.414196
20.731264,31.387329,9.941101,17.749762,-2.605182,-13.986914,-0.043725
20.747362,-17.517090,-1.190186,-0.644709,-0.439486,-10.035131,-1.383140
20.763058,-43.716431,-9.689331,-16.262079,0.658630,-7.820936,-0.529315
20.778671,-57.296753,-6.484985,-15.522029,-0.344883,-9.869876,0.304750
20.794329,-63.262939,-3.906250,1.201604,0.012574,-11.566148,0.196376
20.810153,-67.230225,7.240295,9.914372,1.551973,-6.725813,0.138296
20.825981,-54.344177,12.298584,-16.490961,2.687212,-19.617605,-2.658488
20.841930,-73.051453,-19.599915,6.893132,2.436932,-8.019723,-4.954712
20.857761,-85.876465,-17.311096,4.016850,2.004033,-4.444558,-2.174694
20.874132,-140.075684,-34.225464,-31.871820,6.516249,-19.617605,-2.119608
20.890648,-90.843201,-37.170410,-18.451715,-4.278702,-4.541556,-6.259399
20.906846,-113.945007,4.936218,17.436956,-4.069138,-15.641273,-10.850053
20.922647,-34.851074,19.477844,31.528448,-0.370031,-10.095606,-2.677648
20.938424,22.026062,10.978699,25.737738,0.178429,-12.743899,-5.381625
20.954535,34.484863,-0.183105,20.023321,-1.299897,-10.007589,-9.318439
20.970223,42.564392,-1.029968,21.556829,2.305805,-8.055648,-7.243154
20.986023,54.351807,10.002136,15.819524,0.236508,-10.367441,-5.606158
21.002149,72.029114,3.570557,15.254949,-1.098116,-7.517367,-5.749859
21.017789,80.436707,2.204895,17.223333,0.105980,-9.115444,-6.825821
21.033363,94.535828,0.991821,17.055487,0.616718,-8.732840,-5.610948
21.048939,106.498718,5.416870,10.837529,-0.646057,-7.480844,-4.824184
21.064534,109.825134,2.609253,11.562322,-1.010698,-8.768765,-4.609830
21.080125,129.386902,1.579285,8.014653,-1.302891,-7.862849,-4.986446
21.095772,143.821716,2.876282,8.464787,-0.567620,-5.891150,-3.887133
21.111428,128.105164,3.471375,7.091496,-0.940644,-4.622388,-3.190182
21.127262,101.654053,10.902405,5.443547,-0.296384,-4.160748,-2.241754
21.143829,98.716736,9.910583,7.717107,1.490900,-2.933300,-2.263908
21.159773,60.485840,17.852783,-4.459407,0.242496,-3.524870,-1.968722
21.175426,36.224365,22.354126,-6.465938,-1.072370,-4.499044,-2.924335
21.191071,22.102356,22.850037,-3.650691,-1.053809,-5.216352,-2.399825
21.207133,-7.270813,24.536133,-1.812007,-1.169368,-10.736274,-1.019695
21.222889,45.997620,13.557434,4.489873,0.599354,-12.153526,-5.785784
21.238613,98.159790,5.081177,6.717656,-0.401166,-11.672128,-4.589472
21.254707,117.980957,10.643005,0.286077,0.289199,-10.122550,-3.311130
21.270456,132.835388,4.386902,3.650640,0.409548,-7.531139,-4.051191
21.286210,135.910034,6.141663,-2.399470,-0.189805,-6.808442,-1.835798
21.302029,136.932373,3.952026,-7.892634,0.164059,-7.729327,-0.967604
21.317728,147.956848,2.975464,-9.609248,0.332908,-8.944201,1.206475
21.333392,154.891968,7.858276,-13.828303,-0.553848,-8.449030,0.117939
21.349400,178.054810,9.605408,-13.622310,1.048420,-18.071022,-5.946250
21.365002,192.970276,-5.508423,-23.181940,-11.361374,-19.617605,-6.846778
21.380602,122.138977,-1.991272,38.791630,0.542472,-4.178112,8.418478
21.396167,156.196594,-40.771484,-4.001643,4.551734,-7.740703,-4.333804
21.411843,128.364563,7.804871,-21.427179,-0.355660,-11.543994,5.728272
21.427595,148.689270,-21.293640,22.518133,3.039879,-2.451303,19.417604
21.443401,95.092773,-4.402161,8.762334,2.203418,-9.430988,7.884388
21.459197,107.505798,-18.859863,-2.674129,-1.271157,-7.265292,3.894286
21.475011,100.944519,-17.066956,4.718755,-2.099235,-11.531421,5.673187
21.490889,102.569580,-24.642944,16.063665,-0.644859,-6.097720,5.695940
21.506802,112.388611,-20.271301,12.569402,-0.505948,-8.084988,9.507613
21.522829,126.976013,-11.611938,3.238652,1.094524,-8.685538,4.435560
21.538730,108.726501,-9.094238,4.047368,-0.144899,-8.463999,7.868222
21.554446,101.379395,-6.431580,2.750371,-0.341889,-5.678591,5.329501
21.570058,88.035583,-4.806519,1.918767,-0.535886,-7.282057,7.566450
21.585738,85.395813,1.831055,3.803227,-0.184417,-6.719826,6.609041
21.601374,87.745667,3.021240,0.308965,-0.364043,-7.166497,7.293417
21.617000,88.317871,4.020691,-0.469233,-0.100591,-6.591094,6.710829
21.632588,89.591980,4.631042,-1.308467,0.113165,-6.664142,6.919196
21.648205,90.049744,4.585266,-7.900264,1.465153,-4.560117,13.028292
21.663800,77.857971,17.440796,1.094792,1.996249,-8.504714,5.357643
21.679376,62.660217,2.624512,-5.222346,-0.963397,-5.111570,8.384948
21.695176,58.876038,11.497498,-1.377131,0.289797,-6.437812,9.769269
21.711133,58.677673,0.961304,-6.465938,-1.077160,-5.609136,8.458594
21.726937,59.120178,9.094238,-5.367305,-0.083227,-5.427713,8.480748
21.742765,59.494019,5.805969,-3.063228,-0.553848,-5.391189,8.703485
21.758644,58.967590,4.577637,-0.888850,-0.539478,-5.295388,8.489730
21.774593,56.106567,1.663208,-0.400569,0.383203,-4.772675,9.220809
21.790473,51.986694,0.495911,1.064275,0.691562,-4.445156,8.721448
21.806296,44.441223,-2.243042,2.429936,-0.005988,-4.530180,9.133391
21.822294,38.764954,-3.929138,2.758000,-0.268242,-4.340973,8.590321
21.838658,33.599854,-3.379822,2.758000,-0.726888,-4.396059,9.214223
21.855684,37.132263,-5.661011,4.383061,-1.159189,-2.414180,6.125845
21.871396,20.576477,0.938416,-0.049617,1.537603,2.208807,7.559265
21.887391,-87.730408,-7.102966,1.842473,1.354384,1.447191,6.883869
21.903094,-126.914978,9.376526,5.092595,-0.314945,-5.205575,10.990728
21.918698,-128.845215,-7.682800,-5.168941,-1.582509,-3.236869,8.078983
21.934365,-132.453918,-9.658813,3.917668,-0.838257,-6.341413,10.427300
21.950369,-119.201660,-0.122070,-1.224543,1.025068,-6.770720,9.210032
21.965963,-119.148254,5.516052,-1.140620,0.111368,-7.034173,11.993643
21.981528,-98.541260,1.510620,-1.132991,0.050295,-5.820496,9.801601
21.997151,-82.412720,10.902405,-5.054500,0.815504,-5.733677,5.674384
22.012741,-42.839050,4.417419,-7.938411,-0.645458,-12.646900,8.709473
22.028519,36.361694,13.099670,-0.637080,1.479523,-13.498330,6.162968
22.044306,97.839355,15.167236,-4.268672,1.187930,-9.901609,3.100337
22.060053,114.601135,5.676270,-1.453425,-0.205373,-7.479646,2.684202
22.075890,90.614319,15.029907,-1.972224,0.282014,-6.559958,2.323153
22.091872,55.130005,8.300781,-3.185298,0.056283,-7.438332,4.575070
22.108498,17.639160,1.396179,-5.146052,-0.625699,-5.805527,5.138498
22.124524,3.051758,5.920410,-1.216914,-0.135917,-5.986950,6.527610
22.140359,-8.872986,5.554199,0.629399,0.076641,-6.273155,8.843594
22.156013,-4.119873,1.594543,-0.782039,0.008383,-5.942043,9.011844
22.172127,-1.342773,-3.257751,-0.019099,-0.398771,-5.497169,10.670994
22.187881,12.931824,-2.662659,3.124211,-0.443677,-6.376141,10.515317
22.203779,25.978088,-0.358582,3.688787,-0.191602,-5.800737,10.493762
22.219449,35.552979,-0.915527,-0.370051,-0.773591,-5.518125,9.237575
22.235076,45.715332,0.320435,-0.736262,-0.738265,-5.960605,8.744201
22.250713,53.710938,3.105164,0.423406,-0.659229,-6.170169,7.047329
22.266265,53.749084,1.670837,-1.621272,-0.023950,-7.189848,7.746675
22.281941,54.824829,1.564026,-2.826716,-0.617915,-7.030580,6.981466
22.297548,46.981812,5.012512,-1.522090,-0.464634,-5.729486,6.485697
22.313221,40.351868,4.768372,-2.315547,-0.373623,-5.470224,6.557548
22.329061,30.952454,4.508972,-2.315547,-0.304766,-5.204378,7.017391
22.344971,22.506714,5.805969,-0.141169,-0.150287,-5.907316,8.715460
22.360879,22.232056,1.091003,-0.255610,-0.154479,-5.001998,9.665086
22.376739,26.657104,-1.281738,2.666448,-0.149090,-4.760700,9.868662
22.392563,41.282654,-2.944946,4.863713,-0.288600,-5.004393,10.356647
22.408581,53.924561,-5.371094,4.909490,-0.225731,-4.876859,10.218335
22.424534,63.171387,-5.180359,5.359624,-0.441282,-4.458928,9.247753
22.440415,70.137024,-4.150391,4.901860,-0.496368,-4.528982,8.536432
22.456367,66.368103,-3.631592,3.704045,-0.316143,-4.667295,7.983782
22.472169,57.533264,-2.655029,3.177617,-0.274230,-4.297264,7.594591
22.487860,50.392151,-1.205444,2.658818,-0.495769,-4.180507,7.658658
22.503632,44.082642,-2.098083,1.720403,-0.468825,-4.498446,8.175384
22.519266,38.574219,-0.091553,1.537297,-0.219144,-3.823649,8.872932
22.534866,41.679382,-0.404358,1.735662,-0.393382,-3.791915,9.462707
22.550563,48.851013,-0.762939,1.087163,-0.588576,-3.480562,10.316531
22.566157,52.970886,0.038147,1.461003,-0.447869,-2.880610,10.708715
22.581778,61.218262,-0.274658,2.170537,-0.285606,-2.477049,10.550644
22.597358,67.787170,-0.656128,0.873540,-0.143102,-2.902764,10.231507
22.613070,68.740845,-0.450134,1.758550,-0.730481,-2.945874,9.550723
22.628876,68.321228,-0.244141,0.888799,-0.424517,-2.927911,9.216618
22.644786,66.078186,0.366211,0.255559,-0.253872,-2.659669,8.434644
22.660560,62.355042,0.442505,0.537847,-0.488584,-2.648892,8.433447
22.676438,58.097839,0.999451,0.278447,-0.557441,-2.433340,8.853174
22.692301,54.519653,1.113892,-0.453975,-0.334704,-2.085463,9.484262
22.708220,54.664612,0.549316,0.171636,-0.149689,-1.636397,10.181212
22.724116,55.648804,-1.075745,1.316045,-0.304766,-1.158591,10.570403
22.740000,61.599731,-1.075745,1.682256,-0.514929,-1.010100,10.806313
22.755905,68.565369,-1.472473,3.620122,-0.375419,-0.980761,10.797331
22.771576,73.379517,-2.372742,3.658269,-0.317340,-0.942440,10.423109
22.787244,74.592590,-1.831055,3.032659,-0.498164,-0.944835,9.861477
22.803735,72.647095,-0.381470,2.841924,-0.216749,-0.850232,9.111835
22.819682,67.855835,-1.663208,2.834294,0.036524,-0.616119,8.845989
22.835624,63.674927,-1.594543,1.979802,-0.483794,-0.199984,9.316011
22.851374,61.599731,-0.671387,4.215215,-0.459844,0.331710,10.046493
22.867080,62.057495,-1.373291,2.559636,-0.101788,1.052611,10.135707
22.883134,63.194275,-2.067566,2.994512,-0.399968,1.223256,10.435683
22.899195,67.680359,-1.091003,2.590154,-0.558638,1.316063,10.268032
22.914959,72.120667,-0.854492,1.422856,-0.311353,1.340013,10.083016
22.930602,73.783875,-1.953125,2.811406,-0.056882,1.527424,9.639339
22.946189,73.661804,-0.122070,2.895329,-0.663420,1.197510,9.381275
22.961983,71.762085,-0.762939,0.888799,-0.596959,1.237028,9.129200
22.977759,66.513062,-0.564575,2.063725,0.022154,1.603466,8.948376
22.993521,64.186096,-1.182556,1.392339,-0.240101,1.869313,9.444145
23.009441,63.743591,0.709534,0.087712,-0.362845,2.506388,9.506415
23.025304,64.834595,-0.091553,2.284978,-0.126936,2.705773,9.772861
23.041044,68.016052,-0.976562,2.162908,-0.377814,3.124303,9.778849
23.056894,71.136475,-1.266479,2.078984,-0.725691,3.046465,9.569284
23.072602,72.319031,-0.976562,2.582524,-0.373024,2.995571,9.029208
23.088243,69.618225,-1.220703,3.467534,0.346080,3.588937,9.005857
23.104008,67.588806,-1.823425,4.810308,-0.167053,3.594924,8.824433
23.119831,65.551758,0.160217,1.422856,-0.555645,3.828439,8.677140
23.135504,63.888550,-0.572205,-0.324275,0.295785,4.236790,9.023220
23.151182,64.285278,-1.426697,2.155278,-0.525108,4.481081,9.204643
23.166736,66.604614,0.518799,0.164006,-0.877775,4.406836,8.841798
23.182368,66.871643,-0.961304,-1.674678,0.065863,4.595444,8.922629
23.197957,67.398071,-1.457214,-1.018550,-0.784968,4.725374,8.489730
23.213651,66.009521,0.373840,-0.240352,-0.269440,4.510420,8.021503
23.229426,63.514709,-0.869751,-0.019099,-0.494572,5.122348,8.090360
23.245239,62.095642,-3.852844,0.469182,-0.272433,5.072052,7.829303
23.260984,59.661865,-1.518250,2.887700,-0.366438,5.481002,8.132273
23.276748,60.317993,-0.320435,3.696416,-0.212558,5.816305,8.028688
23.292740,60.791016,-1.228333,3.131841,-0.363444,5.689369,7.720928
23.308646,62.049866,-1.228333,2.414678,-0.283810,6.229446,7.672429
23.324553,59.806824,-1.251221,3.284429,-0.186812,6.025270,7.387422
23.340491,58.891296,-0.656128,2.994512,-0.136516,6.020480,7.128760
23.356447,56.999207,-0.656128,2.429936,-0.094603,6.307284,7.144926
23.373069,55.740356,-1.312256,2.574895,-0.228724,6.747369,6.894048
23.388772,53.062439,-1.091003,1.560186,-0.178429,6.940168,6.935961
23.404519,53.512573,-1.525879,1.811956,-0.267643,6.817423,6.789865
23.420198,52.032471,-0.823975,2.567266,-0.287402,6.956933,6.944942
23.435984,52.772522,-0.358582,1.995061,-0.268841,6.844367,6.696459
23.451534,51.483154,-1.487732,2.185796,-0.116757,6.992260,6.333613
23.467118,49.644470,-1.243591,4.230474,-0.108973,7.127578,6.291101
23.482724,48.797607,-0.175476,2.048467,-0.148491,7.091653,6.165962
23.498316,46.325684,-0.793457,1.956914,0.022154,7.413184,6.171350
23.513981,45.471191,-1.182556,1.407598,-0.033530,7.510781,6.110278
23.530629,45.036316,-1.121521,1.430486,-0.229323,7.552694,5.873770
23.546622,43.785095,0.091553,1.255010,-0.075443,7.689210,5.744439
23.562651,43.388367,-0.991821,1.293157,-0.246088,7.340136,5.851017
23.578672,41.564941,-1.258850,1.995061,-0.364642,7.965236,5.792339
23.594291,44.403076,-2.052307,3.971074,-0.020358,8.380772,4.292458
23.609887,40.016174,-0.495911,2.147649,0.446072,8.296348,5.991724
23.626088,44.296265,0.427246,2.887700,-0.453257,8.234077,5.042698
23.641993,40.512085,0.213623,3.177617,-0.332908,8.071216,5.811499
23.658025,52.642822,-1.068115,6.389592,-1.183738,6.278543,4.040981
23.673822,39.993286,0.724792,9.342168,-0.255668,8.978330,3.673944
23.689667,43.334961,3.890991,10.265325,0.008383,8.345446,4.159534
23.705410,39.306641,8.445740,13.606999,-0.313748,8.734636,3.671549
23.721147,35.110474,11.322021,15.178655,0.083227,8.533455,3.926020
23.736999,27.343750,10.200500,14.873479,0.056882,8.213719,3.657778
23.752782,21.049500,8.979797,13.889287,0.347278,8.153844,3.727233
23.768465,14.427185,6.050110,8.563970,0.198787,8.080197,3.729030
23.784490,8.399963,3.639221,4.894231,0.104782,9.032217,3.482342
23.800330,2.510071,-0.160217,2.605412,0.817300,8.679551,3.821836
23.815900,-0.030518,-0.167847,-0.438716,0.412542,8.625663,4.017630
23.831803,-2.822876,-1.853943,-2.056148,0.277822,8.927435,4.255335
23.847438,-3.440857,-2.120972,-3.772761,0.551453,8.448431,3.909255
23.863434,-6.805420,-2.197266,-4.383113,-0.088616,8.536448,4.110436
23.879717,-10.902405,-3.852844,-5.184199,0.043110,8.368797,4.258329
23.895383,-14.160156,-4.333496,-6.137874,-0.032932,8.530460,4.588243
23.911153,-15.319824,-3.814697,-5.718257,0.041314,8.381371,4.714580
23.926816,-14.900208,-3.654480,-5.580928,0.147892,8.463400,5.031322
23.942794,-12.336731,-1.617432,-3.978755,-0.018561,8.365803,4.826547
23.958716,-10.833740,-0.610352,-1.613643,-0.242496,8.490943,5.078623
23.974740,-9.162903,0.152588,0.148748,-0.215552,8.249645,4.819961
23.990658,-8.544922,0.534058,1.560186,-0.255070,8.210127,4.906780
24.006372,-8.926392,1.091003,2.338384,0.085023,8.138875,4.989408
24.022084,-8.499146,0.984192,1.743291,0.116757,8.099358,5.064253
24.037713,-8.071899,0.350952,0.431035,0.271835,8.133487,5.160054
24.053303,-6.599426,-0.541687,-1.087214,0.229323,8.223300,5.230108
24.068837,-4.844666,-1.235962,-1.880671,0.026345,8.258626,5.244478
24.084403,-2.571106,-1.091003,-1.743342,-0.010179,8.202343,5.166041
24.099961,-1.541138,-0.694275,-0.926997,-0.164658,8.168214,5.094191
24.115568,-1.243591,0.015259,0.263188,-0.301772,8.035291,5.071438
24.131222,-1.350403,0.045776,1.041387,0.105381,8.150850,5.116344
24.147043,-0.701904,0.366211,1.392339,-0.100591,8.091574,5.195380
24.162967,0.656128,0.297546,1.079534,0.167053,8.202942,5.255256
24.178861,2.639771,0.000000,0.400518,0.050295,8.211325,5.202565
24.194701,4.470825,-0.419617,-0.225093,0.063468,8.222701,5.009168
24.210632,4.745483,-0.343323,-0.431086,-0.029938,8.271799,4.895404
24.226515,4.074097,-0.289917,0.125859,-0.070054,8.201145,4.785233
24.242373,2.578735,0.038147,0.873540,-0.062869,8.252040,4.758289
24.258200,1.113892,0.228882,1.323674,-0.008981,8.297545,4.808585
24.273956,0.732422,0.221252,1.224492,0.062271,8.314310,4.818165
24.289751,0.442505,0.129700,0.804875,0.175435,8.307724,4.858281
24.306217,0.236511,-0.007629,-0.179316,0.046104,8.272996,4.843911
24.322336,-0.373840,-0.541687,-0.690486,0.052690,8.232281,4.830140
24.338002,-1.289368,-0.724792,-0.957515,-0.004790,8.255033,4.847504
24.353687,-1.838684,-0.625610,-0.774409,-0.084424,8.253238,4.884027
24.369630,-2.067566,-0.289917,-0.324275,-0.013173,8.232281,4.978032
24.385370,-1.708984,-0.274658,0.125859,-0.023351,8.230485,5.033716
24.401146,-1.060486,-0.175476,0.102971,0.044308,8.164621,5.082814
24.417046,-0.312805,-0.335693,-0.003840,0.057480,8.189171,5.082216
24.432617,0.595093,-0.274658,-0.164058,-0.138312,8.197553,5.032519
24.448202,1.098633,0.030518,-0.118281,-0.059875,8.161628,5.011562
24.463930,1.518250,-0.251770,0.148748,-0.038919,8.234676,4.964261
24.479707,1.815796,-0.183105,0.362371,-0.012574,8.201744,4.922947
24.495473,1.792908,-0.045776,0.652288,0.032333,8.222102,4.904386
24.511360,1.617432,-0.167847,0.575994,0.028141,8.247849,4.917558
24.527226,1.663208,0.053406,0.339482,0.052690,8.238867,4.884027
24.543064,1.365662,-0.389099,0.080083,0.032932,8.271200,4.882830
24.558961,1.022339,-0.381470,-0.095393,0.021555,8.272397,4.878040
24.575552,0.457764,-0.236511,-0.156428,0.016765,8.258626,4.851096
24.591102,-0.091553,-0.251770,0.019048,-0.134720,8.264614,4.867262
24.607182,-0.709534,-0.320435,-0.034358,0.026345,8.249645,4.879238
24.622881,-0.999451,-0.267029,-0.141169,0.030536,8.235873,4.925941
24.638599,-1.281738,-0.389099,-0.171687,0.013173,8.241262,4.971446
24.654291,-0.793457,-0.335693,-0.286128,0.019160,8.220305,5.018149
24.670674,-0.396729,-0.381470,-0.301387,-0.003593,8.213120,5.027130
24.686349,-0.129700,-0.595093,-0.194575,-0.017963,8.207133,5.036111
24.702048,0.167847,-0.137329,-0.034358,-0.007185,8.205935,5.047488
24.717615,0.503540,-0.122070,0.057195,-0.014370,8.212522,4.998390
24.733178,0.839233,-0.144958,0.301335,-0.034728,8.246052,5.003180
24.748768,1.205444,-0.022888,0.247930,0.031734,8.205935,4.987612
24.764520,1.319885,-0.236511,0.263188,0.042512,8.242459,4.970847
24.780448,1.358032,-0.305176,0.110601,0.019759,8.218510,4.938514
24.796648,1.312256,-0.213623,0.156377,0.017963,8.231682,4.930731
24.813141,1.022339,-0.198364,2.017949,0.074246,13.504916,7.787390
24.829243,3.669739,3.547668,-0.110652,0.331710,11.949351,11.075752
24.844954,63.117981,4.356384,-4.520442,1.332230,14.591058,10.355450
24.860602,122.970581,-4.684448,-6.549861,0.622705,10.754236,6.252182
24.876558,111.160278,-2.861023,-12.416865,-1.217867,10.887759,6.527610
24.892989,124.320984,-1.815796,-11.341121,0.914299,6.524632,4.885225
24.908727,135.208130,-1.640320,-9.494807,0.795146,9.892030,6.955121
24.924442,158.355713,-3.906250,-10.761287,-1.542393,9.462722,4.651711
24.940031,166.992188,-3.250122,-10.189082,-0.250280,7.399413,4.643328
24.955648,180.633545,-5.378723,-8.716609,-0.353265,6.896459,4.575070
24.971257,199.127197,-4.455566,-6.481196,-0.476609,5.853428,3.808664
24.986854,205.993652,-2.639771,-4.772212,-0.308958,4.459527,3.633229
25.002424,198.112488,0.373840,-1.499202,-0.710722,3.532654,1.265752
25.018035,178.939819,-1.266479,-0.392939,-1.602268,0.049098,-1.953154
25.033648,114.570618,8.964539,2.803777,-0.087418,-1.811832,-0.408965
25.049240,59.036255,9.056091,9.662602,0.167053,2.893782,0.953801
25.065829,73.577881,9.613037,5.344365,-0.160466,6.738986,2.001622
25.081963,105.064392,5.668640,8.609746,-0.169448,11.108101,1.208870
25.097887,187.477112,37.574768,17.803167,-3.158432,19.617605,-19.817604
25.113560,165.565491,7.095337,-3.429439,-2.845283,19.617605,-2.609390
25.129604,143.112183,-0.198364,-8.564021,3.051854,-7.371870,-0.035941
25.145480,75.759888,5.203247,2.567266,0.290995,-12.000844,0.916079
25.161128,46.630859,2.647400,-8.831050,0.619113,19.617605,-6.098933
25.176731,67.985535,66.772461,-4.306819,1.275348,4.581074,0.001182
25.192357,62.294006,52.642822,7.579778,7.408993,-5.715714,-7.456310
25.208037,71.792603,6.050110,-21.656061,4.503235,17.489630,-14.865902
25.223782,102.806091,-0.015259,-8.327510,-7.271878,15.334112,-7.465292
25.239404,98.152161,51.551819,11.875127,-1.056204,5.754633,-2.733931
25.255046,78.369141,18.516541,-16.895319,1.568738,7.611971,-3.698525
25.270620,73.600769,6.706238,-0.194575,-1.574127,8.575966,-6.417471
25.286197,84.983826,25.802612,-13.019588,-0.358055,7.240144,-5.750458
25.301728,69.877625,11.474609,-6.557490,0.764011,6.102510,-5.729501
25.317314,67.436218,1.937866,-3.284480,0.335303,7.334148,-7.195852
25.332876,66.825867,5.081177,1.789067,-0.137115,7.569459,-6.521055
25.348545,60.752869,-2.365112,2.758000,0.092208,6.634803,-6.615659
25.364304,56.999207,-4.119873,1.956914,-0.289797,6.916218,-6.630029
25.380075,53.390503,-6.378174,3.643010,0.231119,6.649173,-6.486926
25.396109,50.582886,-10.040283,4.657720,0.602946,6.710845,-6.816840
25.412069,49.499512,-9.010315,2.796147,0.286804,6.716234,-6.878512
25.427951,46.325684,-8.666992,2.826665,0.311951,6.562952,-6.917431
25.443838,43.304443,-9.399414,2.513860,0.141306,6.591094,-7.015627
25.459777,40.161133,-6.744385,1.987432,-0.240699,6.511459,-6.829414
25.475703,38.093567,-4.562378,0.514959,-0.644260,6.677913,-6.946171
25.491531,37.597656,-2.929688,0.041936,-0.775388,6.686894,-6.906653
25.507190,37.124634,-2.510071,0.453923,-0.453257,6.472540,-6.943776
25.522852,37.399292,-1.998901,0.438665,-0.411943,6.533613,-6.912641
25.538574,36.499023,0.572205,-0.080134,-0.027543,6.578520,-7.093465
25.554360,35.987854,1.800537,-0.629451,0.069456,6.373746,-7.058737
25.570055,35.514832,3.654480,-1.316096,-0.028141,6.427035,-7.064725
25.585645,36.987305,3.631592,-0.904109,-1.078358,6.210885,-10.678809
25.601291,35.491943,15.930176,-3.208186,2.637515,4.254752,-10.901546
25.616875,24.795532,-0.785828,-3.894832,-1.028062,5.153483,-6.337237
25.632451,20.996094,9.292603,-5.725886,0.632285,5.773195,-8.526285
25.648150,18.577576,3.257751,0.942205,0.133522,5.443880,-8.176613
25.663952,18.424988,2.861023,-2.773311,0.173639,5.273833,-8.029319
25.679759,13.557434,-0.411987,-0.812556,0.710722,5.109774,-8.262235
25.695641,10.734558,0.373840,-0.911738,0.293390,5.033732,-8.095181
25.711658,5.584717,-2.075195,0.141118,-0.041913,5.234315,-8.717288
25.727618,0.656128,-2.067566,0.881169,-0.129331,5.029541,-8.116737
25.743678,-3.967285,-3.334045,2.056096,0.087418,5.235513,-8.332289
25.760098,-7.591248,-4.043579,2.376531,-0.203577,5.248086,-8.162243
25.776680,-6.729126,-4.180908,0.041936,0.800535,3.353027,-10.717729
25.792264,-59.448242,-4.585266,9.937261,-1.004112,-0.474214,-7.647313
25.808200,-156.661987,-2.845764,4.497502,1.022673,2.356699,-9.866898
25.824141,-156.776428,-31.036377,-6.496455,-3.933221,11.545192,-9.944137
25.840075,-154.067993,-3.311157,7.770513,1.290915,7.528744,-7.509600
25.855740,-129.783630,-11.268616,2.712224,-0.418530,6.407276,-5.336119
25.871685,-120.986938,-5.599976,0.339482,0.508942,5.802534,-7.537741
25.887305,-116.027832,-8.880615,4.451726,0.586780,8.286768,-6.518660
25.903248,-93.215942,-4.371643,4.054997,-0.320933,8.572373,-7.438947
25.918824,-71.731567,-1.853943,4.268620,-1.024470,10.153686,-5.279238
25.934383,-31.951904,-1.945496,-0.034358,-0.130529,12.919933,-1.969321
25.949982,-11.749268,-2.639771,0.408147,-0.320933,11.736195,1.231024
25.965657,47.378540,-5.653381,-0.103022,-0.567620,9.762698,3.746393
25.981487,84.129333,-6.385803,-2.201106,-1.468746,11.766132,-0.959221
25.997412,78.659058,-4.325867,1.941655,-0.872386,8.132289,-1.294524
26.013812,65.574646,0.465393,3.520940,-0.311951,7.759863,-2.629747
26.029951,28.785706,2.128601,-1.697566,0.095202,5.785170,-3.832646
26.045611,-3.753662,3.173828,-3.902461,0.495769,6.168972,-3.941020
26.061268,-32.135010,9.506226,-2.582576,-0.166454,6.695277,-4.322427
26.077175,-51.345825,10.002136,-0.484492,0.545466,7.422165,-4.930163
26.092835,-52.635193,7.339478,-2.643611,0.085622,8.358618,-5.588794
26.108383,-52.314758,6.553650,-3.932979,-0.065863,8.662786,-5.504968
26.124368,-40.481567,6.507874,-0.629451,-0.077838,8.174202,-6.097137
26.139977,-24.940491,4.531860,-1.018550,-0.055684,8.405321,-6.041452
26.155679,-13.191223,-0.205994,-1.056697,-0.188009,8.606503,-5.912122
26.171296,7.484436,-3.150940,-0.400569,-0.038919,8.601114,-6.101328
26.186839,19.615173,-3.768921,1.583074,0.265847,8.883127,-5.915115
26.202405,28.915405,-5.584717,2.498601,0.017963,8.388556,-5.564844
26.218060,35.842896,-7.713318,1.857732,0.070653,8.223300,-5.204992
26.233675,35.263062,-7.606506,1.934026,-0.055085,8.247849,-4.549356
26.249427,27.702332,-6.423950,1.972173,-0.153281,7.347321,-4.304465
26.265259,19.958496,-4.463196,1.583074,0.061073,7.691007,-4.289496
26.281080,13.397217,-4.722595,0.904058,-0.048499,7.823331,-4.232614
26.296927,6.278992,-0.968933,-0.003840,-0.193997,7.911947,-4.439185
26.312941,3.646851,-0.305176,-0.400569,-0.291594,8.522677,-4.791253
26.328852,3.929138,0.473022,-1.529719,-0.251477,7.810159,-5.322947
26.344783,10.063171,0.587463,-0.812556,0.059875,8.502319,-5.755847
26.360711,15.007019,0.373840,-0.087764,-0.180824,7.844288,-5.640886
26.376728,22.979736,-1.892090,-0.896479,-0.293989,8.400531,-5.898350
26.392665,30.822754,-2.777100,-0.492122,-0.325723,7.845485,-6.401903
26.409083,34.561157,-2.182007,-0.232722,-0.544867,7.696994,-5.770815
26.424843,36.468506,-0.633240,-0.942256,-0.373623,7.670050,-5.564844
26.440554,36.926270,1.205444,-0.499751,-0.147294,7.792196,-5.425334
26.456206,38.795471,1.884460,-1.285579,-0.279619,7.670050,-4.982854
26.471812,39.199829,3.318787,-2.338435,-0.235909,7.641310,-4.771493
26.487399,39.718628,3.517151,-2.056148,-0.068258,7.704778,-4.922978
26.502968,38.696289,3.349304,-2.315547,-0.135319,7.464677,-5.095420
26.518553,39.009094,3.166199,-2.437617,0.066462,7.449110,-5.329533
26.534118,41.061401,2.212524,-2.086665,0.263452,7.502398,-5.464253
26.549777,45.974731,1.167297,-2.498652,0.183219,7.458091,-5.506166
26.565509,54.954529,0.328064,-2.109553,0.206570,7.664661,-5.767223
26.581327,65.299988,-0.068665,0.606511,-1.331032,7.885003,-10.635699
26.597099,62.667847,4.951477,4.772161,1.756747,9.319021,-9.461540
26.613124,59.211731,3.257751,-0.110652,1.310076,7.047944,-8.332289
26.629038,70.350647,-4.981995,-5.443599,-1.171165,7.353908,-8.882545
26.644978,76.431274,4.127502,1.445745,0.597557,5.937253,-6.932400
26.660927,86.151123,-0.038147,-0.461604,0.496967,6.215674,-7.949685
26.676881,85.021973,-2.998352,-1.903560,-0.344284,5.413942,-6.814445
26.692832,84.945679,-1.480103,0.530217,-0.261057,5.345085,-7.406614
26.708975,80.940247,-2.113342,0.217412,-0.162263,5.307364,-7.361707
26.725498,78.041077,0.999451,-1.979854,-0.107776,5.549260,-7.948487
26.741243,74.081421,1.144409,-0.095393,0.003593,5.166057,-8.503532
26.757179,75.210571,1.754761,-1.003291,-0.180824,5.126539,-8.797522
26.772954,75.866699,0.617981,-1.705195,-0.214953,4.411027,-8.798718
26.788556,80.146790,0.709534,-1.155879,0.308958,4.585864,-8.912482
26.804190,87.532043,-1.823425,-0.408198,0.690963,4.543951,-9.695654
26.820174,88.813782,0.450134,-0.309016,-0.238304,4.176914,-8.819675
26.835791,93.925476,1.792908,-0.835444,-0.332309,4.251160,-9.106479
26.851412,95.901489,1.411438,-1.941707,-0.602946,3.524870,-9.505250
26.867073,97.007751,1.632690,-1.171138,0.183219,3.329676,-9.486090
26.882959,94.573975,2.677917,-1.750972,0.222737,2.696193,-8.427491
26.898855,96.527100,0.709534,-2.903010,-0.121547,2.683021,-9.660327
26.914888,92.117310,0.381470,-2.422359,0.010179,2.016606,-9.209465
26.930712,90.644836,-0.183105,-2.353694,0.574805,1.613644,-9.217249
26.946543,91.186523,1.014709,-2.658870,-0.057480,1.528621,-9.787862
26.962521,95.359802,0.442505,0.362371,0.629890,1.114283,-9.208267
26.978574,97.091675,-2.204895,-2.399470,0.570015,1.437012,-9.641766
26.994537,98.815918,-2.258301,0.583623,-0.623903,0.984952,-10.809338
27.010422,102.737427,-2.273560,3.330205,0.237706,0.154479,-10.552472
27.026062,103.187561,-3.585815,3.040288,0.617915,-0.068857,-9.974074
27.041790,100.364685,-1.319885,1.766179,-0.382006,-0.193398,-10.276446
27.057352,99.693298,-3.997803,5.069707,-0.517324,-0.899330,-9.935156
27.072930,96.260071,-4.180908,4.405950,-0.612526,-1.165177,-8.899908
27.088455,98.678589,-3.677368,3.910039,-1.486708,-1.589694,-10.299797
27.103991,98.007202,-3.623962,5.115483,-0.219743,-1.971700,-9.898033
27.119504,98.167419,-1.441956,2.597783,-0.405956,-2.180665,-9.520817
27.135124,98.243713,-0.823975,-2.170588,-0.251477,-2.571054,-10.426733
27.150713,99.510193,1.182556,-3.139522,-0.755030,-2.886597,-9.868694
27.166548,100.349426,-0.892639,0.972722,-0.027543,-2.957250,-9.868694
27.182435,98.045349,0.190735,-0.881221,0.837059,-3.399132,-9.677691
27.198210,95.756531,-0.396729,-3.177669,0.232916,-3.642226,-8.608315
27.214057,92.788696,0.671387,-2.544429,-0.277822,-4.066743,-8.210742
27.229983,93.544006,-1.091003,-0.774409,-0.135917,-4.083508,-9.110670
27.245920,91.407776,-0.770569,-0.637080,0.241298,-4.589456,-9.277124
27.261815,88.912964,-0.663757,-1.018550,0.024549,-5.245093,-8.296963
27.277809,88.844299,-0.778198,2.422307,-1.544189,-5.427713,-8.522693
27.293648,87.318420,-0.801086,5.954717,0.593965,-5.488187,-8.672980
27.309520,85.136414,0.465393,1.361821,0.344883,-5.890551,-8.329894
27.325160,82.038879,-0.297546,-0.148799,-0.940644,-6.135441,-8.422701
27.340810,82.496643,-1.388550,2.124761,-0.298779,-6.104306,-7.776045
27.356576,79.170227,1.487732,3.147099,0.720901,-6.349197,-7.565284
27.372305,75.813293,0.701904,-0.743892,0.111967,-6.497688,-7.419786
27.387949,73.074341,-0.854492,-1.941707,-0.404160,-6.380332,-8.011955
27.403542,70.648193,-1.296997,-0.591304,-0.187410,-6.998846,-7.330572
27.419224,67.977905,1.243591,-0.392939,-0.062869,-6.889274,-7.247345
27.434802,64.727783,-0.297546,-2.201106,-0.022753,-7.028185,-7.244351
27.450490,63.415527,-0.221252,-2.361323,-0.060474,-6.845564,-6.933598
27.466224,58.677673,-0.259399,-2.315547,-0.231718,-7.316186,-6.815044
27.482065,54.306030,-0.434875,-3.429439,-0.621508,-7.810159,-6.558178
27.497848,53.024292,0.511169,-2.414729,0.046104,-7.630532,-6.649787
27.513650,49.285889,-1.342773,-2.315547,0.191602,-8.856782,-6.213295
27.529590,44.555664,-0.564575,-1.606013,-0.237706,-8.169412,-6.247424
27.545522,42.289734,-0.877380,-0.888850,-0.395178,-8.514894,-6.238443
27.561333,38.658142,-0.030518,1.354192,0.296384,-8.077204,-6.154617
27.577243,33.615112,-0.320435,0.827764,0.171244,-8.265811,-6.016904
27.593051,32.630920,-0.740051,0.865911,-0.193398,-8.175399,-5.849851
27.608765,27.015686,-0.167847,1.110051,-0.326920,-7.921527,-6.168389
27.624502,22.491455,1.373291,1.750920,0.050894,-8.481961,-5.883980
27.640162,18.630981,0.724792,1.140569,0.136516,-8.498128,-5.863024
27.655976,15.380859,-0.343323,0.286077,-0.061672,-8.447234,-5.622324
27.671626,11.459351,0.198364,0.492070,-0.156874,-8.520282,-5.641484
27.687261,8.232117,0.000000,0.171636,-0.219743,-8.451426,-5.615738
27.702823,3.883362,-0.541687,-0.865962,0.016166,-8.458012,-5.585201
27.718372,-0.114441,-1.274109,-1.369502,-0.235311,-8.410111,-5.647472
27.734067,-4.180908,-0.663757,-1.087214,-0.332908,-8.466394,-5.601966
27.749870,-7.858276,-0.335693,-0.865962,0.000000,-8.485554,-5.698965
27.765708,-11.283875,-0.656128,-1.155879,-0.029938,-8.463999,-5.700162
27.781664,-14.381409,-1.205444,-0.972773,-0.098795,-8.416099,-5.736686
27.797576,-17.486572,-0.312805,0.095342,-0.170046,-8.328680,-5.803148
27.813545,-21.034241,0.099182,0.789617,0.115560,-8.227490,-5.873801
27.829541,-24.688721,-0.480652,0.247930,0.088616,-8.198152,-5.925294
27.845451,-27.687073,-0.923157,-0.057246,-0.131127,-8.278385,-6.023490
27.861324,-30.456543,-0.030518,0.690435,-0.213157,-8.063432,-6.105519
27.877336,-33.576965,0.686646,1.354192,0.017963,-8.043075,-6.148630
27.893075,-36.697388,-0.450134,-0.263240,-0.008383,-7.771838,-6.257603
27.908778,-39.619446,-1.007080,-1.148250,-0.167053,-7.774233,-6.465970
27.925127,-42.823792,0.106812,0.087712,-0.357457,-7.537725,-6.506086
