Timestamp,Gyro_X_dps,Gyro_Y_dps,Gyro_Z_dps,Accel_X_mps2,Accel_Y_mps2,Accel_Z_mps2
0.005520,0.343323,-0.228882,0.057195,-0.131726,8.776549,3.855966
0.021201,0.434875,-0.282288,-0.041987,-0.081431,8.753198,3.854169
0.037098,0.221252,-0.221252,-0.011470,-0.094603,8.817265,3.858361
0.052737,0.244141,-0.228882,0.003789,-0.083826,8.759185,3.842793
0.068523,0.335693,-0.282288,-0.087764,-0.091610,8.760383,3.860756
0.085231,0.328064,-0.335693,-0.064875,-0.079036,8.775950,3.858361
0.103053,0.389099,-0.358582,-0.041987,-0.086819,8.808882,3.842194
0.122249,0.373840,-0.183105,0.011418,-0.088616,8.817265,3.848182
0.138497,0.320435,-0.144958,-0.003840,-0.083826,8.764574,3.844589
0.156256,0.221252,-0.190735,0.041936,-0.108375,8.768765,3.850577
0.172206,0.511169,-0.267029,0.049565,-0.097597,8.782537,3.847583
0.188136,0.419617,-0.183105,-0.064875,-0.091610,8.777148,3.857163
0.204073,0.320435,-0.328064,-0.095393,-0.105980,8.783135,3.849379
0.219863,0.244141,-0.251770,-0.026729,-0.105381,8.775950,3.869737
0.237113,0.198364,-0.366211,0.041936,-0.088616,8.774154,3.882910
0.259256,0.389099,-0.213623,0.049565,-0.097597,8.769962,3.879916
0.278107,0.404358,-0.205994,-0.072505,-0.003593,8.775352,3.846385
0.299760,0.366211,-0.350952,-0.011470,-0.094603,8.801697,3.824232
0.316786,0.373840,-0.205994,0.110601,-0.090412,8.797505,3.864947
0.334375,0.450134,-0.328064,0.110601,-0.105980,8.753797,3.844589
0.354475,0.312805,-0.289917,0.118230,-0.080832,8.752000,3.857762
0.375155,0.473022,-0.274658,-0.095393,-0.089813,8.766370,3.851176
0.391782,0.335693,-0.320435,-0.011470,-0.112566,8.775352,3.870934
0.408932,0.389099,-0.152588,0.164006,-0.090412,8.781938,3.840997
0.427168,0.198364,-0.251770,0.110601,-0.107177,8.825048,3.840997
0.443857,0.259399,-0.167847,0.072454,-0.051493,8.797505,3.851774
0.462802,0.389099,-0.297546,-0.019099,-0.073647,8.780142,3.843991
0.479305,0.366211,-0.404358,0.072454,-0.072449,8.765772,3.851176
0.495674,0.389099,-0.160217,0.019048,-0.086819,8.790320,3.859558
0.511468,0.358582,-0.297546,0.034307,-0.077239,8.792117,3.863750
0.531678,0.450134,-0.267029,0.057195,-0.118553,8.791518,3.854169
0.552808,0.373840,-0.305176,0.041936,-0.042512,8.771759,3.866144
0.573839,0.320435,-0.419617,-0.011470,-0.085023,8.783734,3.854169
0.592529,0.274658,-0.312805,0.026677,-0.094005,8.770561,3.833812
0.610610,0.373840,-0.434875,0.049565,-0.119751,8.775352,3.834410
0.628153,0.427246,-0.144958,0.080083,-0.035327,8.794512,3.855966
0.646156,0.305176,-0.305176,-0.125911,-0.083227,8.787926,3.867941
0.664179,0.419617,-0.221252,0.041936,-0.072449,8.793913,3.869737
0.680460,0.297546,-0.175476,0.003789,-0.110770,8.747211,3.863750
0.697075,0.350952,-0.289917,0.087712,-0.091011,8.796308,3.840398
0.714638,0.350952,-0.190735,0.087712,-0.056882,8.813672,3.839200
0.730258,0.411987,-0.213623,-0.003840,-0.067061,8.752599,3.864348
0.750791,0.350952,-0.358582,-0.026729,-0.113165,8.793314,3.851176
0.766555,0.411987,-0.289917,-0.019099,-0.045505,8.781339,3.846984
0.782302,0.350952,-0.411987,0.095342,-0.080233,8.777746,3.857163
0.797933,0.450134,-0.129700,0.148748,-0.099992,8.771160,3.830818
0.814568,0.198364,-0.381470,0.034307,-0.096998,8.781339,3.837404
0.831251,0.312805,-0.411987,0.026677,-0.084424,8.785530,3.829022
0.847007,0.419617,-0.236511,-0.003840,-0.072449,8.784333,3.872731
0.862714,0.381470,-0.267029,-0.026729,-0.094005,8.769364,3.881113
0.878333,0.328064,-0.213623,0.026677,-0.127535,8.782537,3.842194
0.894379,0.259399,-0.282288,0.057195,-0.080233,8.809481,3.847583
0.910218,0.297546,-0.297546,-0.049617,-0.105381,8.771160,3.858361
0.926072,0.404358,-0.190735,0.057195,-0.088616,8.780142,3.861953
0.942246,0.328064,-0.236511,0.034307,-0.092208,8.796906,3.881712
0.957883,0.389099,-0.373840,0.057195,-0.122745,8.781938,3.855966
0.973635,0.228882,-0.167847,0.080083,-0.056882,8.761580,3.846984
0.989369,0.228882,-0.160217,-0.087764,-0.075443,8.790320,3.842793
1.005118,0.312805,-0.274658,-0.103022,-0.082029,8.805888,3.842793
1.020966,0.343323,-0.251770,0.087712,-0.062271,8.817265,3.870336
1.036614,0.404358,-0.228882,0.102971,-0.069456,8.806487,3.841595
1.052377,0.381470,-0.152588,0.118230,-0.067659,8.766969,3.836805
1.068432,0.259399,-0.236511,0.164006,-0.035925,8.748407,3.843392
1.088452,0.259399,-0.282288,-0.095393,-0.108973,8.795111,3.833812
1.104449,0.343323,-0.381470,-0.095393,-0.078437,8.802895,3.841595
1.120203,0.358582,-0.427246,0.026677,-0.086221,8.751401,3.840997
1.135894,0.495911,-0.335693,-0.041987,-0.075443,8.759784,3.852373
1.151777,0.511169,-0.213623,0.087712,-0.096998,8.788525,3.863151
1.167606,0.282288,-0.297546,0.064824,-0.096998,8.743618,3.872731
1.183499,0.297546,-0.350952,-0.026729,-0.053289,8.743019,3.845188
1.199323,0.442505,-0.297546,0.110601,-0.105980,8.792715,3.846385
1.214957,0.175476,-0.289917,0.026677,-0.098795,8.796906,3.846385
1.230598,0.427246,-0.350952,-0.087764,-0.091011,8.767568,3.848781
1.248811,0.343323,-0.152588,-0.003840,-0.093406,8.753797,3.835608
1.264818,0.434875,-0.289917,0.003789,-0.086221,8.792715,3.832614
1.280550,0.221252,-0.183105,-0.026729,-0.056283,8.801697,3.847583
1.296257,0.389099,-0.297546,-0.072505,-0.097597,8.810080,3.846984
1.311873,0.366211,-0.175476,0.057195,-0.077838,8.761580,3.852373
1.327526,0.419617,-0.282288,-0.019099,-0.093406,8.792715,3.836805
1.343456,0.335693,-0.366211,-0.003840,-0.098196,8.812474,3.830818
1.359151,0.396729,-0.190735,0.041936,-0.096400,8.795710,3.867342
1.374766,0.427246,-0.198364,0.057195,-0.095202,8.727451,3.858361
1.390367,0.305176,-0.236511,0.041936,-0.104183,8.790320,3.869138
1.406191,0.312805,-0.320435,0.034307,-0.143701,8.803493,3.855966
1.421883,0.396729,-0.312805,-0.003840,-0.117356,8.756191,3.836805
1.437598,0.358582,-0.343323,0.003789,-0.125739,8.780142,3.845787
1.453292,0.236511,-0.205994,-0.019099,-0.105381,8.836425,3.842793
1.468957,0.350952,-0.244141,-0.103022,-0.095801,8.788525,3.839200
1.484827,0.244141,-0.373840,0.026677,-0.078437,8.765173,3.849379
1.501201,0.457764,-0.297546,-0.003840,-0.113763,8.784931,3.825429
1.516883,0.312805,-0.320435,-0.049617,-0.088017,8.808283,3.826627
1.532801,0.289917,-0.106812,-0.041987,-0.102986,8.765772,3.831417
1.548449,0.312805,-0.328064,-0.103022,-0.062271,8.750204,3.850577
1.564157,0.434875,-0.350952,0.095342,-0.081431,8.785530,3.837404
1.579791,0.350952,-0.190735,-0.003840,-0.071252,8.804690,3.846385
1.595750,0.289917,-0.061035,-0.087764,-0.092208,8.771160,3.839799
1.612452,0.366211,-0.297546,0.034307,-0.068857,8.768765,3.849978
1.631526,0.381470,-0.205994,0.011418,-0.058678,8.768167,3.868539
1.649883,0.419617,-0.282288,-0.041987,-0.091011,8.797505,3.845787
1.667641,0.312805,-0.381470,0.041936,-0.068258,8.810678,3.862552
1.685828,0.305176,-0.236511,-0.141169,-0.094603,8.793913,3.864348
1.702192,0.373840,-0.183105,0.003789,-0.071851,8.759185,3.841595
1.724761,0.305176,-0.190735,0.202153,-0.092807,8.770561,3.833213
1.740592,0.343323,-0.175476,0.133489,-0.089813,8.781339,3.847583
1.760584,0.366211,-0.305176,0.011418,-0.073048,8.767568,3.873928
1.778944,0.427246,-0.305176,-0.019099,-0.054487,8.775950,3.858361
1.794765,0.518799,-0.259399,0.095342,-0.090412,8.805289,3.888298
1.810675,0.373840,-0.106812,-0.011470,-0.089813,8.757988,3.843392
1.826596,0.259399,-0.305176,0.049565,-0.038320,8.772957,3.864947
1.842230,0.411987,-0.175476,-0.041987,-0.067659,8.808882,3.845188
1.857996,0.389099,-0.198364,0.064824,-0.057480,8.777746,3.839799
1.874292,0.343323,-0.213623,0.011418,-0.049697,8.770561,3.849379
1.889966,0.442505,-0.213623,-0.064875,-0.095801,8.768765,3.864348
1.905986,0.404358,-0.236511,-0.057246,-0.046703,8.801697,3.835009
1.921605,0.404358,-0.274658,0.049565,-0.077838,8.781339,3.827824
1.937276,0.389099,-0.091553,-0.003840,-0.088017,8.757389,3.875725
1.952866,0.411987,-0.144958,0.034307,-0.064666,8.772957,3.818244
1.969139,0.335693,-0.297546,-0.049617,-0.094005,8.779543,3.867342
1.984745,0.381470,-0.335693,0.019048,-0.099393,8.790320,3.854768
2.000346,0.495911,-0.343323,-0.003840,-0.042512,8.765772,3.854768
2.015960,0.373840,-0.358582,0.019048,-0.062271,8.790320,3.849978
2.031886,0.328064,-0.244141,-0.011470,-0.093406,8.780741,3.869138
2.047536,0.289917,-0.183105,-0.110652,-0.089214,8.774154,3.848182
2.063379,0.480652,-0.144958,-0.003840,-0.095801,8.768765,3.838602
2.079315,0.236511,-0.190735,-0.003840,-0.106578,8.790919,3.863750
2.095050,0.305176,-0.267029,-0.041987,-0.150287,8.802296,3.848781
2.110677,0.305176,-0.312805,0.034307,-0.131127,8.752000,3.861953
2.127335,0.328064,-0.183105,-0.034358,-0.086221,8.776549,3.836207
2.143142,0.289917,-0.274658,0.003789,-0.086819,8.775950,3.842793
2.158882,0.289917,-0.282288,-0.034358,-0.116757,8.789123,3.849978
2.174539,0.381470,-0.251770,0.026677,-0.142504,8.790320,3.855966
2.190162,0.350952,-0.251770,-0.034358,-0.086221,8.769962,3.855367
2.206583,0.160217,-0.282288,0.049565,-0.126936,8.794512,3.866144
2.222233,0.190735,-0.404358,0.011418,-0.071851,8.797505,3.853570
2.238286,0.320435,-0.373840,0.019048,-0.111967,8.763376,3.851176
2.253892,0.259399,-0.419617,-0.087764,-0.031135,8.766969,3.872132
2.269882,0.450134,-0.236511,-0.057246,-0.110770,8.795710,3.861953
2.285536,0.320435,-0.198364,0.080083,-0.091011,8.795710,3.881113
2.301420,0.267029,-0.312805,0.041936,-0.095801,8.754395,3.852972
2.317061,0.320435,-0.213623,-0.034358,-0.070054,8.759784,3.855966
2.332894,0.267029,-0.289917,0.026677,-0.099393,8.800499,3.867342
2.348533,0.434875,-0.350952,0.064824,-0.068258,8.786728,3.865546
2.364448,0.381470,-0.244141,0.072454,-0.084424,8.759784,3.879317
2.380129,0.473022,-0.289917,0.003789,-0.055684,8.765173,3.864348
2.396097,0.251770,-0.160217,0.125859,-0.075443,8.807684,3.879916
2.411800,0.427246,-0.259399,0.057195,-0.069456,8.787327,3.863151
2.427435,0.312805,-0.137329,0.164006,-0.111967,8.767568,3.835608
2.443372,0.228882,-0.358582,0.003789,-0.070054,8.805888,3.842194
2.459172,0.404358,-0.305176,0.049565,-0.102986,8.790919,3.839799
2.474948,0.289917,-0.244141,0.003789,-0.085023,8.765772,3.869138
2.490587,0.404358,-0.282288,0.041936,-0.089813,8.761580,3.821836
2.506495,0.366211,-0.221252,0.141118,-0.105980,8.783734,3.851176
2.522112,0.320435,-0.152588,0.102971,-0.062271,8.801098,3.838003
2.537690,0.373840,-0.358582,0.049565,-0.110171,8.766969,3.869138
2.553584,0.404358,-0.228882,0.041936,-0.110171,8.769364,3.848781
2.569174,0.297546,-0.251770,0.095342,-0.089813,8.791518,3.879916
2.584771,0.244141,-0.350952,-0.003840,-0.107776,8.793913,3.871533
2.600731,0.366211,-0.274658,0.034307,-0.079634,8.800499,3.857163
2.616640,0.328064,-0.297546,-0.064875,-0.075443,8.802296,3.857762
2.632838,0.312805,-0.213623,-0.026729,-0.113763,8.766969,3.850577
2.648792,0.411987,-0.251770,0.019048,-0.129930,8.767568,3.864348
2.664668,0.343323,-0.373840,-0.019099,-0.043709,8.882528,3.858959
2.680597,0.396729,-0.289917,0.034307,-0.091011,8.784931,3.858959
2.696294,0.274658,-0.289917,0.118230,-0.112566,8.838221,3.835608
2.711997,0.411987,-0.366211,-0.019099,-0.099992,8.783135,3.864348
2.727734,0.335693,-0.190735,0.003789,-0.069456,8.754395,3.892490
2.743962,0.274658,-0.251770,-0.011470,-0.056882,8.784931,3.840398
2.759981,0.244141,-0.358582,0.156377,-0.118553,8.805289,3.877521
2.775724,0.213623,-0.244141,0.049565,-0.076641,8.769962,3.863151
2.791457,0.411987,-0.289917,0.019048,-0.055085,8.759185,3.864348
2.807104,0.297546,-0.198364,-0.003840,-0.085622,8.811276,3.853570
2.823360,0.366211,-0.366211,-0.087764,-0.080233,8.788525,3.847583
2.839367,0.358582,-0.358582,-0.003840,-0.088616,8.774154,3.846385
2.855139,0.282288,-0.221252,0.057195,-0.114362,8.751401,3.864947
2.870927,0.221252,-0.389099,0.095342,-0.055684,8.774154,3.867941
2.887392,0.396729,-0.198364,0.026677,-0.097597,8.812474,3.861953
2.903066,0.396729,-0.267029,0.110601,-0.070054,8.771759,3.846385
2.918855,0.358582,-0.183105,-0.003840,-0.069456,8.789123,3.836805
2.934585,0.175476,-0.274658,-0.041987,-0.073647,8.787327,3.853570
2.950456,0.320435,-0.381470,0.003789,-0.052690,8.824450,3.866144
2.966340,0.473022,-0.160217,-0.049617,-0.095801,8.767568,3.858361
2.982110,0.335693,-0.381470,0.102971,-0.095801,8.778345,3.867941
2.998051,0.244141,-0.205994,0.019048,-0.073048,8.773556,3.849379
3.013948,0.328064,-0.244141,-0.072505,-0.091011,8.765173,3.840997
3.030030,0.251770,-0.228882,-0.003840,-0.095801,8.743019,3.840997
3.046502,0.228882,-0.289917,-0.041987,-0.103585,8.808882,3.843392
3.062357,0.160217,-0.396729,-0.080134,-0.105980,8.833431,3.877521
3.078403,0.343323,-0.282288,-0.034358,-0.043709,8.781938,3.846385
3.094136,0.366211,-0.289917,-0.080134,-0.075443,8.750204,3.849379
3.109852,0.389099,-0.152588,-0.034358,-0.113763,8.804091,3.842793
3.125889,0.213623,-0.366211,-0.095393,-0.093406,8.789123,3.846984
3.142602,0.411987,-0.228882,-0.003840,-0.076042,8.782537,3.862552
3.158415,0.457764,-0.221252,0.057195,-0.074246,8.756191,3.868539
3.174014,0.236511,-0.274658,0.164006,-0.093406,8.764574,3.855367
3.189583,0.389099,-0.228882,0.057195,-0.088616,8.794512,3.870934
3.205262,0.343323,-0.434875,0.034307,-0.091610,8.778944,3.861354
3.220974,0.328064,-0.259399,0.057195,-0.068258,8.772957,3.867941
3.236759,0.343323,-0.167847,0.019048,-0.137714,8.786129,3.854169
3.252565,0.419617,-0.259399,0.026677,-0.117955,8.789123,3.884107
3.268434,0.366211,-0.144958,0.049565,-0.073048,8.749006,3.880515
3.284573,0.404358,-0.297546,0.019048,-0.078437,8.790320,3.845188
3.300774,0.350952,-0.251770,0.026677,-0.101190,8.813672,3.867941
3.317525,0.389099,-0.152588,-0.034358,-0.027543,8.834029,3.863151
3.333618,0.488281,-0.320435,0.019048,-0.102387,8.774753,3.854768
3.349404,0.411987,-0.335693,0.057195,-0.085023,8.792117,3.865546
3.365028,0.396729,-0.335693,-0.011470,-0.067061,8.798703,3.855367
3.381082,0.152588,-0.373840,0.003789,-0.114362,8.794512,3.862552
3.396911,0.427246,-0.267029,0.064824,-0.105980,8.759185,3.848182
3.412574,0.404358,-0.289917,0.072454,-0.067659,8.773556,3.857163
3.428273,0.282288,-0.144958,-0.019099,-0.089214,8.820258,3.835608
3.443899,0.190735,-0.335693,0.080083,-0.047900,8.802296,3.875725
3.459565,0.389099,-0.251770,0.095342,-0.073647,8.782537,3.845787
3.475138,0.221252,-0.221252,0.026677,-0.021555,8.795111,3.860756
3.490741,0.442505,-0.312805,0.003789,-0.034129,8.817863,3.867941
3.506357,0.442505,-0.152588,-0.118281,-0.062869,8.769364,3.848182
3.522120,0.411987,-0.343323,0.057195,-0.062271,8.761580,3.846385
3.537858,0.305176,-0.213623,0.072454,-0.053289,8.789721,3.845188
3.553621,0.381470,-0.068665,0.118230,-0.092807,8.775950,3.849379
3.569412,0.373840,-0.129700,0.041936,-0.057480,8.748407,3.867941
3.585203,0.274658,-0.297546,-0.049617,-0.051493,8.783135,3.857163
3.601157,0.282288,-0.137329,-0.057246,-0.071851,8.793913,3.840398
3.617100,0.381470,-0.404358,-0.003840,-0.071851,8.783734,3.855966
3.632893,0.411987,-0.251770,-0.049617,-0.075443,8.778345,3.837404
3.649203,0.282288,-0.129700,0.026677,-0.098196,8.784333,3.866743
3.664950,0.320435,-0.053406,0.034307,-0.053289,8.781938,3.843392
3.680726,0.450134,-0.244141,0.080083,-0.044907,8.768167,3.878119
3.696430,0.274658,-0.251770,0.080083,-0.077838,8.763975,3.849379
3.712194,0.251770,-0.335693,-0.049617,-0.076641,8.786129,3.880515
3.727969,0.350952,-0.228882,-0.080134,-0.077838,8.811875,3.854768
3.743586,0.183105,-0.198364,-0.049617,-0.113763,8.801098,3.876323
3.759183,0.442505,-0.175476,0.057195,-0.134121,8.756790,3.874527
3.774822,0.373840,-0.305176,-0.125911,-0.074246,8.757389,3.866743
3.790433,0.320435,-0.274658,-0.087764,-0.108375,8.814869,3.851774
3.806129,0.366211,-0.373840,-0.095393,-0.101788,8.775352,3.849379
3.821915,0.411987,-0.373840,-0.019099,-0.116757,8.750803,3.875126
3.837786,0.167847,-0.274658,0.057195,-0.083826,8.799302,3.857762
3.853651,0.205994,-0.190735,-0.095393,-0.073647,8.769962,3.833213
3.869471,0.251770,-0.137329,0.102971,-0.115560,8.772358,3.838602
3.885399,0.221252,-0.244141,0.064824,-0.107776,8.787926,3.866144
3.901293,0.213623,-0.373840,-0.087764,-0.071252,8.787926,3.825429
3.918116,0.267029,-0.236511,-0.026729,-0.119751,8.784333,3.838602
3.935341,0.419617,-0.251770,0.133489,-0.108973,8.788525,3.829620
3.953941,0.297546,-0.152588,0.148748,-0.052690,8.780741,3.833213
3.972410,0.328064,-0.236511,-0.080134,-0.064067,8.753797,3.869138
3.988792,0.373840,-0.198364,-0.118281,-0.066462,8.774753,3.871533
4.008447,0.213623,-0.373840,-0.080134,-0.086819,8.795111,3.866144
4.027537,0.251770,-0.221252,0.087712,-0.089813,8.799900,3.848781
4.044541,0.205994,-0.259399,0.156377,-0.098196,8.756191,3.864947
4.062222,0.274658,-0.366211,0.080083,-0.067659,8.777746,3.871533
4.080018,0.312805,-0.335693,-0.041987,-0.050894,8.810678,3.861953
4.096431,0.366211,-0.297546,0.049565,-0.103585,8.787327,3.867941
4.112518,0.419617,-0.274658,0.003789,-0.088017,8.786129,3.870336
4.128306,0.373840,-0.297546,0.057195,-0.091011,8.754993,3.854768
4.143978,0.389099,-0.129700,0.110601,-0.080832,8.795111,3.876922
4.160378,0.335693,-0.305176,0.019048,-0.094005,8.784333,3.884706
4.176210,0.465393,-0.289917,-0.003840,-0.087418,8.801098,3.845188
4.191980,0.411987,-0.205994,-0.041987,-0.082029,8.781339,3.860157
4.207593,0.366211,-0.282288,0.072454,-0.093406,8.771160,3.845787
4.223190,0.366211,-0.274658,0.057195,-0.083826,8.771759,3.859558
4.238831,0.343323,-0.198364,0.209783,-0.092208,8.782537,3.869737
4.254688,0.358582,-0.213623,0.095342,-0.075443,8.792715,3.881712
4.270466,0.289917,-0.167847,-0.019099,-0.079634,8.805289,3.870336
4.286269,0.366211,-0.251770,-0.064875,-0.099393,8.777746,3.839200
4.302117,0.305176,-0.274658,-0.019099,-0.098196,8.794512,3.827225
4.318146,0.183105,-0.305176,0.095342,-0.086819,8.780142,3.861953
4.334009,0.228882,-0.236511,-0.064875,-0.068857,8.798104,3.843392
4.349934,0.297546,-0.221252,-0.011470,-0.056283,8.803493,3.874527
4.366113,-22.705078,-1.869202,-0.400569,0.214354,16.692089,6.531801
4.381727,40.863037,3.662109,-2.452876,1.015488,8.402926,4.234977
4.397764,105.331421,1.724243,-3.566768,0.352068,11.603869,6.867702
4.413768,139.808655,-5.226135,-6.168391,1.525029,9.835148,5.179812
4.429595,136.253357,-4.951477,-8.823421,-1.274150,12.361894,4.943305
4.445258,155.731201,4.318237,-5.100276,-0.801733,8.029303,3.674543
4.461156,170.478821,-4.920959,-10.005977,-0.735271,8.105944,3.823034
4.476720,185.043335,-7.415771,-5.161311,-0.029938,5.576803,4.969650
4.492335,203.315735,-3.883362,-6.206538,-1.153801,8.268207,4.579860
4.507900,221.229553,-1.304626,-0.507380,-0.811912,6.035449,2.258487
4.523490,226.425171,2.708435,-1.125361,-0.353265,2.152524,1.395083
4.539147,215.934753,0.335693,4.978154,-1.157992,0.998124,-1.378350
4.554965,146.232605,12.245178,8.434270,0.866398,-13.895305,-10.731500
4.570757,74.943542,13.336182,1.590703,1.759741,4.991819,-0.446687
4.586586,111.190796,27.359009,35.816166,-5.654042,19.617605,-11.279959
4.603058,58.181763,-3.890991,-4.039790,-7.970026,19.617605,-7.256925
4.619130,112.442017,21.530151,-5.977656,6.986871,-12.418177,-1.044244
4.634897,85.906982,-1.564026,7.259343,5.006788,7.953860,-4.345180
4.650532,55.984497,-15.220642,-19.115473,-2.947072,19.550545,-7.794607
4.666770,82.321167,45.097351,0.873540,-9.069939,4.102668,-7.350331
4.682566,83.267212,60.340881,15.727971,5.082232,5.145700,-4.585879
4.698243,69.396973,-6.858826,-21.762873,3.796106,15.455660,-11.010519
4.714103,88.272095,5.523682,-0.133540,-0.716111,9.181308,-5.897751
4.729780,80.856323,35.072327,-3.353145,-0.287402,8.103549,-5.545085
4.745454,68.916321,15.884399,-5.291011,0.875380,6.274951,-5.225948
4.761095,74.180603,12.924194,-10.059382,-0.017364,7.667655,-5.293009
4.776649,74.287415,12.596130,-4.169490,0.967588,8.081993,-5.863024
4.792295,73.547363,5.493164,-3.963496,-0.264650,7.593410,-6.173179
4.807942,66.001892,6.431580,0.133489,0.423918,6.746171,-7.040176
4.823710,59.112549,0.000000,-1.575496,0.128134,7.072493,-6.637214
4.839303,54.679871,-1.937866,0.370000,0.275427,6.981482,-6.616257
4.855027,51.368713,-4.539490,1.338933,0.403561,6.791078,-6.410884
4.870713,50.125122,-6.439209,1.583074,0.220941,6.929390,-6.552789
4.886410,50.193787,-7.919312,2.140019,0.181423,6.758146,-6.358793
4.902212,45.471191,-5.058289,1.392339,-0.120948,6.771918,-6.803069
4.918255,43.724060,-7.797241,1.041387,0.020956,6.664741,-6.838396
4.934122,39.382935,-7.331848,2.094243,-0.298180,6.840176,-7.001855
4.949913,37.605286,-5.393982,1.270269,-0.359253,6.620433,-6.709663
4.965756,35.903931,-4.859924,1.850103,-0.344883,6.715036,-6.944375
4.981462,35.263062,-5.172729,1.689885,-0.585582,6.572532,-6.731218
4.997200,34.469604,-2.563477,1.415227,-0.407752,6.682703,-7.012633
5.012837,33.706665,-1.602173,1.110051,-0.128134,6.567742,-6.890487
5.028502,33.142090,0.976562,-0.247981,0.131726,6.615044,-6.925814
5.044117,33.370972,2.166748,-1.453425,0.163460,6.523435,-6.822229
5.059678,34.103394,3.631592,-2.559688,0.130529,6.584507,-7.022213
5.075245,35.156250,4.623413,-2.941157,0.064666,6.431825,-6.937788
5.090813,35.591125,4.981995,-2.933528,-0.177231,6.357579,-6.987485
5.106469,29.769897,16.235352,0.949834,-0.728086,4.053571,-7.420385
5.122266,18.020630,-5.477905,-0.911738,-0.606539,4.923562,-8.861588
5.138095,17.974854,6.759644,-1.033809,0.402363,5.218748,-7.420385
5.153830,19.363403,-0.556946,0.461553,0.137714,5.842650,-8.182600
5.169886,18.280029,-0.534058,0.949834,0.000000,5.515131,-8.046682
5.185830,16.357422,-0.869751,-0.659968,0.424517,5.472620,-8.163440
5.201734,13.313293,-1.548767,0.972722,0.276625,5.420528,-8.164638
5.217538,10.070801,-1.647949,-0.041987,0.038919,5.314548,-8.199964
5.233441,6.484985,-2.105713,0.957463,-0.225731,5.308561,-8.295166
5.249340,2.365112,-2.937317,1.110051,-0.216749,5.221741,-8.226908
5.265029,-1.670837,-2.288818,1.110051,0.040117,5.231321,-8.187989
5.280727,-5.058289,-2.334595,1.377080,-0.061672,5.345684,-8.240680
5.296443,-8.514404,-2.319336,1.247380,-0.201182,5.332511,-8.177810
5.312529,-11.848450,-1.663208,1.110051,0.249681,1.742377,-8.067040
5.328586,-18.913269,-11.535645,4.299138,-0.443079,-3.105742,-14.628796
5.344577,-114.425659,2.723694,4.199956,0.463436,-3.239264,-7.985011
5.360442,-171.325684,-8.079529,-13.889338,1.519041,11.898457,-9.253773
5.376090,-161.270142,-1.754761,9.761785,0.315544,8.950787,-2.952476
5.392057,-146.705627,2.357483,2.445195,-0.089813,7.792196,-6.604282
5.407731,-122.985840,-4.493713,7.060979,-0.477208,6.913224,-8.372405
5.423505,-120.956421,-4.264832,2.078984,0.585582,8.317304,-6.868932
5.439339,-101.654053,-4.249573,4.329656,0.229922,8.904084,-7.069515
5.455139,-82.153320,-2.166748,3.566716,-0.003593,9.225017,-6.444415
5.471004,-48.736572,1.037598,2.948735,0.905317,8.670569,-4.197886
5.486786,-16.181946,-7.492065,3.002141,-0.663420,12.661869,-3.947607
5.502732,26.039124,-6.774902,1.758550,-0.967588,10.409353,-0.365855
5.518600,90.927124,-7.728577,3.070806,0.732876,11.678714,-1.038257
5.534345,86.647034,-8.934021,0.293706,-0.195793,9.941726,-0.314362
5.550430,77.369690,-3.921509,3.231023,-0.282014,6.740782,-1.211297
5.566811,55.442810,-6.088257,3.604863,0.228126,7.762857,-2.975229
5.582517,10.459900,-6.980896,1.132939,-0.126337,6.303092,-3.948205
5.598492,-14.366150,-5.714417,1.094792,-0.392783,6.925798,-3.029117
5.614257,-34.744263,-4.585266,2.437566,0.492775,6.831194,-5.334922
5.629850,-44.021606,-5.844116,3.177617,0.077838,8.746013,-6.178567
5.645527,-43.457031,-2.380371,-0.057246,-0.213157,8.466992,-5.823506
5.661580,-29.846191,-0.312805,1.171086,-0.126936,8.194559,-6.297121
5.677299,-19.065857,0.900269,-0.263240,-0.265847,9.059760,-5.937269
5.692892,-4.051208,1.708984,-1.941707,-0.095202,9.653126,-6.259399
5.708455,14.350891,0.961304,-2.025630,-0.402363,9.012459,-6.559974
5.724099,31.715393,2.906799,-0.965144,-0.120948,8.498727,-6.157611
5.739920,45.440674,1.853943,-1.636531,-0.150886,8.170011,-5.751655
5.755726,51.864624,0.846863,-1.407649,-0.148491,7.979606,-5.457666
5.771590,51.406860,0.106812,-0.942256,-0.237107,7.304810,-4.741556
5.787392,48.118591,-0.083923,-1.041438,0.074844,8.591534,-4.542769
5.803233,40.878296,-2.204895,-0.926997,0.003593,7.755672,-3.948205
5.819121,35.629272,-2.380371,-2.437617,0.075443,7.368278,-4.187707
5.834916,32.035828,-1.983643,-1.812007,-0.192799,7.368278,-4.512233
5.850810,32.836914,0.572205,-1.987483,-0.101190,8.123906,-4.787660
5.866559,35.682678,0.534058,-3.192927,-0.147294,7.820936,-5.112784
5.882208,45.799255,1.274109,-4.337337,-0.054487,7.958650,-5.479821
5.897922,54.626465,3.181458,-3.078486,-0.395178,7.417974,-6.042650
5.913627,65.116882,3.120422,-3.025081,-0.052690,6.991062,-5.986966
5.929395,62.530518,12.191772,4.390691,-0.356259,8.590336,-6.772532
5.945151,77.056885,11.726379,6.435369,2.441722,2.436932,-13.497149
5.960826,68.313599,1.747131,-3.734614,0.517324,6.552773,-7.119810
5.976949,77.697754,-2.677917,-7.053401,-1.041834,6.271358,-7.201839
5.992838,89.378357,3.181458,3.932927,0.124541,6.737789,-6.107914
6.008424,95.199585,1.953125,0.469182,1.135838,6.841373,-6.357595
6.024261,96.046448,-2.685547,-5.474116,-0.244292,6.240223,-7.153939
6.040104,94.833374,1.190186,-1.476313,-0.806523,5.919291,-7.445533
6.056174,90.934753,3.890991,-0.911738,0.437091,5.127737,-7.068916
6.072008,83.175659,2.334595,-3.704097,-0.734073,4.387676,-7.166513
6.088501,79.536438,2.731323,-3.765132,-0.486189,5.479805,-8.968765
6.104451,80.024719,1.342773,-1.926448,0.295186,4.339776,-7.985011
6.120421,84.373474,0.495911,-4.680659,0.143701,4.475693,-9.147194
6.136453,94.093323,1.197815,-2.849605,0.693358,4.212241,-8.191582
6.152526,104.087830,2.433777,-2.613093,0.649649,4.040997,-10.450684
6.168600,108.810425,1.991272,-3.643062,-0.243094,3.544030,-9.668111
6.186234,112.464905,1.968384,-3.452327,-0.498763,3.296744,-10.424338
6.202249,111.145020,2.120972,-2.887752,-1.104104,3.660189,-7.908969
6.218267,112.350464,-0.061035,-3.749873,0.006586,2.233356,-8.269420
6.233960,110.626221,1.380920,-3.055598,-0.604742,2.189647,-9.410048
6.250124,105.918884,0.099182,-1.949336,0.580792,1.691483,-8.696931
6.266322,103.904724,0.381470,-3.177669,0.082029,1.498683,-9.295087
6.281976,108.016968,-0.350952,-0.659968,0.088017,1.223855,-10.195614
6.298096,110.649109,-1.083374,-1.331355,-0.241298,0.723895,-10.723716
6.313727,111.289978,0.312805,-1.461055,0.316143,1.201102,-9.771695
6.329347,118.316650,-1.304626,-0.247981,-0.579595,-0.086221,-10.263872
6.345303,121.780396,-0.221252,-0.789668,0.701741,-0.764610,-9.200483
6.361166,123.886108,0.389099,-2.162959,0.122146,-0.731080,-10.485412
6.376993,123.878479,-1.121521,0.614141,-0.006586,-0.843047,-9.028042
6.392647,122.291565,-0.900269,-1.857783,0.023351,-1.500480,-8.522693
6.408252,120.742798,0.442505,-2.048518,0.099393,-1.768722,-8.575383
6.424044,120.597839,-0.061035,-4.497554,0.534089,-2.312391,-10.218367
6.439940,117.393494,0.350952,-3.986384,-0.710123,-3.024910,-9.684278
6.455715,119.720459,-0.823975,-0.728633,0.049697,-3.389551,-9.318439
6.471538,122.917175,-0.205994,-5.405452,0.761616,-3.879333,-9.853725
6.487418,126.464844,0.793457,-3.475215,0.548459,-3.423082,-8.552630
6.503348,128.250122,-1.846313,-0.736262,0.013771,-4.397256,-8.489761
6.519189,128.845215,-2.723694,-0.309016,0.376617,-5.628895,-8.620889
6.535170,128.211975,-1.472473,-0.286128,-0.592767,-4.700825,-8.955593
6.551192,125.846863,0.480652,2.185796,0.054487,-4.889432,-8.414917
6.566922,122.482300,-1.670837,1.766179,-0.246687,-5.780380,-7.647912
6.582717,120.201111,0.053406,-1.110103,-0.321531,-5.999524,-7.652103
6.598453,123.207092,0.823975,-0.865962,0.055684,-6.996451,-8.437670
6.614264,123.527527,-0.053406,-0.141169,-0.720302,-7.425159,-7.345541
6.629996,123.809814,-1.861572,0.812505,-0.505948,-6.713240,-6.614461
6.646439,126.472473,-0.244141,1.880620,0.293989,-6.981482,-7.128791
6.662086,125.740051,-0.434875,1.865361,-0.121547,-7.276069,-6.462378
6.677662,122.070312,-0.114441,3.383611,0.737666,-7.852072,-6.185752
6.693789,118.217468,1.747131,3.559087,0.716710,-7.692803,-5.817518
6.709639,116.203308,2.136230,2.849553,0.044308,-8.293354,-6.140846
6.725525,117.393494,2.395630,2.666448,-0.671803,-8.291557,-5.773809
6.741164,117.263794,2.044678,3.536199,-0.938249,-5.343887,-8.141885
6.756878,125.785828,-15.861511,-11.417415,-5.250482,-5.283413,-4.582886
6.772655,106.636047,-5.226135,-18.528009,-1.508264,-12.321178,-4.193096
6.788434,115.753174,-18.058777,-13.500239,-0.870590,-10.632689,-1.796281
6.804285,59.265137,-9.101868,-13.492610,-2.984194,-14.686260,-0.558654
6.820125,41.793823,-1.327515,-3.231074,-0.414338,-7.192244,-0.010793
6.835917,25.482178,10.208130,7.839177,-0.316741,-7.718549,0.326904
6.851663,19.241333,11.108398,-1.041438,-0.064067,-7.549700,-1.947765
6.867528,-19.996643,11.283875,-0.545527,0.290396,-11.874507,-0.461656
6.883263,-61.119080,-2.586365,-3.841426,-0.084424,-9.715996,2.904544
6.898927,-66.947937,6.088257,9.250615,2.799778,-6.340814,-2.171101
6.914669,-73.913574,18.287659,-2.521541,2.313589,-7.379055,-5.976787
6.930438,-81.253052,-14.358521,3.391240,0.386796,-10.284214,-4.887652
6.946113,-73.287964,-8.216858,-1.102473,1.117277,-8.954379,-5.096019
6.961833,-62.973022,-9.757996,2.346013,0.950224,-10.489587,-5.011594
6.977460,-41.702271,13.984680,19.313787,-1.040037,-10.165661,-6.067798
6.993199,-30.990601,8.239746,21.053289,-0.851429,-9.274115,-4.847536
7.008827,-21.644592,-0.473022,17.810797,-2.132765,-7.201824,-6.202518
7.024600,-30.258179,11.405945,17.467474,1.595083,-9.456136,-5.638491
7.040412,-29.602051,7.621765,8.144353,0.036524,-7.861651,-5.090031
7.056168,-38.818359,-1.693726,1.918767,-0.918490,-8.277187,-4.658329
7.072088,-40.672302,-3.334045,-1.285579,-0.013173,-7.724537,-5.629509
7.087982,-44.357300,1.091003,-0.400569,-0.543669,-8.042476,-5.860030
7.104650,-42.045593,1.678467,-2.338435,-1.184337,-8.191566,-5.908529
7.121517,-35.995483,-3.036499,-4.970576,0.281415,-8.317903,-6.464772
7.137797,-33.103943,-2.182007,-8.190181,0.543071,-8.165819,-6.555184
7.153603,-33.065796,-6.111145,-11.974360,-0.335303,-7.850874,-5.789377
7.169337,-36.888123,-5.737305,-10.456111,-0.089813,-7.508386,-6.051631
7.185044,-36.201477,-4.783630,-7.488276,0.559237,-7.475455,-6.599492
7.201239,-35.934448,-2.395630,-3.612544,-0.207169,-7.645501,-6.631226
7.217091,-34.439087,-2.227783,-1.018550,0.079036,-7.432344,-6.576141
7.232879,-33.264160,-1.647949,-0.484492,0.138911,-7.461683,-6.807859
7.248609,-33.058167,-0.289917,-0.431086,-0.228724,-7.256909,-6.682120
7.264414,-33.706665,-0.450134,1.117681,-0.672402,-7.323970,-6.776125
7.280061,-33.210754,3.822327,1.728032,0.267045,-7.414382,-7.003652
7.295633,-32.737732,1.434326,1.789067,-0.212558,-7.119794,-6.898271
7.311160,-31.898499,1.358032,3.322576,0.107177,-7.102430,-7.194654
7.326735,-30.372620,0.534058,3.406499,0.360450,-6.841373,-7.178488
7.342317,-30.906677,1.022339,2.346013,-0.379611,-7.071295,-6.941980
7.358136,-30.349731,-1.091003,3.017400,-0.128134,-6.992858,-7.162322
7.373894,-30.059814,0.244141,1.781438,-0.028141,-6.850355,-7.249740
7.389632,-30.570984,-1.754761,0.247930,-0.441881,-6.752159,-7.298239
7.405476,-29.823303,-1.380920,-0.797297,0.098795,-6.542594,-7.408410
7.421349,-29.006958,-0.442505,-1.895930,-0.075443,-6.682105,-7.498822
7.437301,-25.405884,0.137329,-0.850703,-0.048499,-6.500083,-7.480261
7.453284,-26.313782,0.106812,-0.545527,0.301772,-6.431825,-7.597617
7.469120,-26.687622,-0.366211,-0.698115,-0.273631,-6.379135,-7.605999
7.485012,-26.512146,-0.289917,1.720403,0.008383,-6.313870,-7.676054
7.500657,-26.153564,0.335693,1.041387,0.143701,-6.218070,-7.742515
7.516367,-25.848389,-0.366211,0.286077,-0.162263,-6.283933,-7.835322
7.532058,-24.467468,-0.061035,0.865911,-0.034129,-6.115084,-7.894000
7.547732,-23.338318,0.053406,0.392888,0.085023,-5.955216,-7.887414
7.563274,-22.567749,-0.152588,-0.034358,-0.105381,-5.994135,-7.965252
7.578862,-21.881104,-0.534058,-0.011470,0.007784,-5.915100,-8.017344
7.594436,-21.240234,-0.083923,-0.019099,0.005389,-5.900131,-7.982017
7.610051,-20.843506,-0.045776,-0.011470,-0.064067,-5.771399,-8.032911
7.625654,-20.210266,-0.328064,0.003789,-0.043110,-5.806725,-8.115540
7.641535,-19.325256,-0.328064,-0.118281,0.063468,-5.703140,-8.105960
7.657330,-18.417358,-0.129700,-0.011470,0.064666,-5.616321,-8.183199
7.673090,-17.417908,-0.007629,0.728582,-0.028740,-5.583988,-8.219124
7.689022,-16.410828,-0.366211,0.598882,0.025148,-5.521718,-8.185594
7.705206,-16.143799,-0.083923,0.331853,-0.059277,-5.968389,-7.961061
7.721935,-15.487671,-0.373840,0.499700,-0.037123,-5.564229,-8.307141
7.737982,-14.038086,-0.305176,0.102971,-0.104183,-5.433701,-8.453836
7.753820,-13.298035,-0.312805,0.102971,-0.041314,-5.367239,-8.261037
7.769513,-12.725830,-0.038147,0.400518,-0.007784,-5.316943,-8.383183
7.785239,-11.306763,-0.053406,0.041936,-0.040715,-5.298382,-8.416115
7.800944,-10.375977,-0.503540,-0.034358,-0.025746,-5.268444,-8.414318
7.816571,-9.757996,-0.030518,-0.019099,-0.010778,-5.260660,-8.420306
7.832140,-8.964539,-0.274658,0.026677,-0.123344,-5.251081,-8.413120
7.847829,-8.262634,-0.205994,0.049565,-0.063468,-5.199587,-8.410127
7.863763,-7.461548,-0.274658,0.118230,-0.067061,-5.219945,-8.445454
7.879846,-6.156921,-0.091553,0.286077,-0.082029,-5.158872,-8.421503
7.895624,-5.218506,-0.457764,0.293706,-0.038320,-5.140909,-8.422102
7.911326,-4.463196,-0.190735,0.080083,-0.065863,-5.136119,-8.438868
7.926987,-3.623962,-0.183105,0.156377,-0.069456,-5.137317,-8.431683
7.942898,-3.356934,-0.205994,0.080083,-0.062271,-5.118755,-8.457429
7.958773,-2.655029,-0.297546,-0.049617,-0.064067,-5.178631,-8.493354
7.974664,-1.876831,-0.167847,-0.041987,-0.091011,-5.129533,-8.516107
7.990476,-0.717163,-0.411987,0.041936,-0.043110,-5.136119,-8.521496
8.006254,1.846313,-0.274658,-0.057246,-0.047900,-5.095404,-8.518501
8.022144,0.801086,-0.274658,0.141118,-0.062271,-5.131330,-8.496347
8.038043,1.670837,-0.442505,0.080083,-0.067061,-5.132527,-8.476589
8.053875,2.296448,-0.411987,-0.019099,-0.114362,-5.115762,-8.471200
8.069705,2.769470,-0.167847,-0.019099,-0.127535,-5.161866,-8.477187
8.086122,3.471375,-0.183105,0.003789,-0.043110,-5.154082,-8.455632
8.102291,2.441406,-0.137329,0.118230,-0.128134,-4.387077,-13.633664
8.117940,-1.220703,8.293152,-0.293757,-0.029938,-7.159312,-10.820714
8.133818,38.398743,7.591248,0.728582,-0.255668,-7.889793,-9.117256
8.149641,61.660767,-0.640869,-0.591304,-0.528102,-6.391109,-9.390288
8.165326,63.308716,-7.301331,-0.995662,-0.044308,-6.700666,-9.380110
8.181025,69.969177,-1.327515,4.138921,0.311951,-7.016809,-9.156775
8.196950,86.517334,2.769470,6.710027,0.049098,-6.477330,-9.501059
8.212674,96.832275,0.549316,7.587407,-0.443677,-6.167774,-9.263951
8.228252,101.844788,-3.440857,8.922551,0.038919,-6.392906,-8.545445
8.243857,111.961365,-1.541138,10.341619,-0.054487,-6.231841,-7.743713
8.259531,117.485046,0.488281,11.043523,-0.360450,-6.682105,-8.013152
8.275347,125.549316,-0.610352,12.905095,-0.739462,-6.554570,-7.993992
8.291109,136.398315,-0.427246,14.400456,-0.001796,-6.477330,-8.071232
8.306862,140.396118,-0.587463,12.813542,-0.233514,-6.904841,-6.506685
8.322625,146.926880,1.091003,13.584111,-0.405956,-7.037765,-6.689305
8.338449,156.166077,2.029419,16.635870,-0.409548,-6.494095,-9.088516
8.354689,167.884827,4.936218,14.659856,-0.321531,-7.813751,-5.450481
8.370820,180.435181,2.441406,14.759038,-0.362845,-5.114564,-4.782271
8.386457,172.767639,3.852844,13.828252,-0.056283,-3.935017,-3.847615
8.402348,149.200439,4.096985,12.302373,-0.299976,-3.421884,-3.127911
8.418137,127.677917,8.071899,11.600469,-0.320334,-3.563789,-2.925532
8.433994,115.478516,11.489868,13.790105,0.249082,-2.837499,-2.937507
8.449617,92.407227,11.177063,8.235906,-0.305964,-5.803731,-2.654895
8.466067,76.972961,16.525269,2.834294,-0.729882,-6.537805,-3.319513
8.481897,82.130432,17.868042,6.214116,-1.522035,-7.782616,-4.402062
8.497746,101.287842,10.101318,4.589055,-1.680705,-11.156001,-3.181799
8.513544,134.887695,10.643005,5.298589,-0.259860,-10.845846,-4.731377
8.529187,154.655457,-3.814697,6.595586,-0.747246,-8.558003,-2.136972
8.545058,169.723511,1.060486,-2.460505,-1.172362,-9.310040,-1.875915
8.560608,178.642273,-4.051208,-1.270320,-0.099393,-6.021678,-1.484928
8.576217,183.326721,-8.163452,-7.534053,-0.764011,-7.676038,-1.796281
8.591978,194.396973,-7.423401,-7.915523,-1.052012,-7.161707,-0.643079
8.607659,193.847656,-19.027710,-64.914726,8.555010,-15.007792,6.720409
8.623327,161.247253,-6.156921,-55.629757,-3.823649,-19.617605,-5.522332
8.639106,151.954651,-7.682800,26.775335,5.282815,-6.296506,5.511523
8.654878,134.956360,-25.070190,-23.227716,-0.777783,-4.934938,5.047488
8.670774,134.445190,-0.892639,-16.956354,-1.328637,-2.458488,10.676981
8.686607,177.925110,10.284424,18.276190,5.835465,-1.900448,-1.269376
8.702500,140.884399,-8.216858,-10.349299,2.757266,-4.084706,5.509128
8.718396,115.669250,11.970520,-1.476313,-0.548459,-12.963642,7.633510
8.734248,123.924255,9.826660,0.041936,1.000519,-7.207811,6.694064
8.749939,130.920410,1.220703,-0.827815,-0.496967,-8.173603,7.832297
8.765788,130.134583,5.485535,0.301335,-1.001717,-7.226373,7.307189
8.781354,128.570557,0.999451,-0.675227,-0.034728,-6.550378,5.528288
8.796979,122.291565,7.728577,0.102971,0.109572,-6.849157,6.764118
8.812537,115.867615,7.881165,0.545476,-0.065264,-6.260581,6.719810
8.828133,112.442017,4.684448,1.888250,-0.244292,-6.433022,7.234739
8.843771,112.075806,4.867554,0.354741,2.240541,-4.378096,5.599540
8.859638,91.522217,-6.454468,-0.263240,-5.449268,-5.784571,11.964903
8.875575,91.423035,-7.041931,-4.161860,-1.281335,-4.211642,6.100698
8.891335,77.140808,4.394531,-3.841426,-0.198787,-5.942642,11.277533
8.907194,90.278625,3.295898,-3.376033,-0.017963,-5.303771,7.779007
8.923111,82.839966,5.119324,0.423406,-0.192799,-4.769083,9.338165
8.938998,84.922791,2.265930,0.232671,0.360450,-4.528982,8.427459
8.954763,78.323364,0.869751,1.506780,0.059277,-4.240981,9.147162
8.970868,72.441101,-0.999451,0.781987,0.283810,-3.872148,9.081898
8.986702,66.474915,-1.487732,0.789617,0.055085,-3.984714,9.405226
9.002494,60.401917,-0.373840,2.788518,-0.006586,-4.099076,9.005258
9.018216,54.420471,-3.318787,2.590154,-0.304766,-3.760779,9.213624
9.033833,50.735474,-0.747681,2.231572,-0.785566,-3.646417,9.559106
9.049637,47.225952,-2.296448,2.162908,-0.260458,-3.450624,9.257932
9.065946,48.057556,1.594543,2.544377,-1.044229,-2.117197,6.581498
9.081862,29.937744,-3.646851,-3.368403,1.299298,2.681823,5.071438
9.097686,-86.830139,-3.791809,-10.067012,0.349673,5.191205,7.253900
9.114669,-120.826721,12.077332,3.215764,0.199984,-5.431904,11.658340
9.134099,-112.121582,-1.052856,-2.849605,0.730481,-5.099596,8.919636
9.149818,-115.615845,6.355286,-2.086665,0.244891,-3.543431,10.692549
9.165573,-108.139038,9.056091,-2.498652,-0.320933,-5.987549,10.634470
9.181256,-99.380493,5.805969,-5.374934,0.199385,-5.309758,11.131436
9.196847,-85.823059,5.775452,-4.108455,-0.037123,-5.108577,12.043340
9.212521,-85.174561,11.940002,-2.483394,0.038919,-7.485633,7.710750
9.228217,-3.929138,-0.709534,-7.579829,-0.367037,-11.251801,7.755656
9.243821,62.278748,3.540039,2.193425,-0.501757,-11.056607,5.633070
9.259597,111.900330,3.746033,2.315495,-0.608335,-9.400452,3.536231
9.275475,112.030029,0.839233,1.514409,0.086819,-6.892267,2.985376
9.291460,73.051453,1.708984,0.896428,-0.409548,-4.899013,3.397319
9.307566,35.095215,3.814697,-1.247432,-0.395777,-5.178032,5.501943
9.323181,8.407593,-1.701355,-0.919368,-0.795745,-4.557722,6.699452
9.338812,-4.096985,-0.808716,1.056646,-0.811912,-5.139712,8.739410
9.354751,-5.195618,-1.892090,2.948735,-0.353265,-4.223018,10.295574
9.370518,3.662109,-0.823975,2.986882,-0.022753,-4.718787,11.105690
9.386237,14.991760,-0.572205,0.408147,-0.352068,-4.372108,11.769110
9.402140,29.434204,1.731873,-0.194575,-0.614322,-4.420607,11.107486
9.417740,44.082642,2.021790,-0.980403,-0.565823,-4.856501,10.520107
9.433349,55.038452,3.067017,-0.118281,-0.104183,-5.219347,9.165724
9.448960,62.095642,-0.709534,-0.858333,-0.023950,-5.482200,8.219691
9.464511,58.738708,0.610352,-0.698115,-0.119751,-5.093009,7.510766
9.480104,51.826477,0.434875,0.972722,-0.578996,-5.028344,6.412050
9.495771,37.551880,1.899719,-1.194026,-0.193997,-4.463717,6.679694
9.511358,24.520874,1.762390,-1.232173,-0.412542,-4.653523,7.238931
9.527061,14.579773,1.800537,-0.141169,-0.250878,-4.270320,8.309505
9.542856,11.894226,1.670837,-0.278499,-0.401765,-4.263135,9.513001
9.558703,17.127991,0.625610,1.308416,-0.056882,-4.018244,10.457837
9.574698,26.618958,-0.984192,1.964543,-0.172441,-3.785927,11.083536
9.590556,38.230896,-2.799988,2.246831,-0.379012,-3.700904,11.155386
9.606568,47.302246,-2.250671,2.803777,-0.302970,-3.581752,10.482386
9.622520,53.268433,-1.983643,1.491521,-0.240699,-3.532654,9.441151
9.638504,52.848816,-1.129150,0.789617,-0.273631,-3.762576,8.683726
9.654496,47.729492,0.099182,0.331853,-0.526904,-3.784730,7.984381
9.670238,38.940430,1.312256,-0.232722,-0.204175,-3.746409,7.667639
9.685956,31.341553,1.541138,-0.919368,-0.077239,-3.578159,7.940073
9.701688,24.024963,1.487732,-1.110103,-0.370031,-3.279979,8.632234
9.717306,20.126343,0.732422,0.621770,-0.177830,-2.923121,9.457916
9.733223,21.148682,-0.389099,1.209233,0.119751,-2.744692,10.287191
9.749227,27.488708,-0.755310,0.957463,-0.479004,-2.542313,10.706919
9.764860,33.752441,-1.312256,1.926396,-0.386796,-2.464475,10.863194
9.780439,42.701721,-0.785828,1.743291,-0.283211,-2.319577,10.652432
9.796084,44.921875,-1.762390,1.773809,-0.293390,-2.366878,9.648919
9.811635,43.022156,-1.449585,1.743291,-0.205972,-2.532733,9.146564
9.827301,41.854858,0.427246,-0.041987,-0.328716,-2.514771,8.384349
9.843114,33.912659,0.183105,0.537847,-0.191602,-2.542912,8.307708
9.858867,28.518677,0.350952,0.179265,-0.115560,-2.451303,8.662769
9.874679,22.949219,0.595093,-0.255610,-0.328716,-2.178869,9.330381
9.890502,21.041870,-0.289917,1.071904,-0.250878,-1.855541,9.943506
9.906329,23.124695,-0.076294,0.865911,-0.241298,-1.636996,10.536873
9.922152,27.320862,-0.968933,1.934026,-0.288600,-1.265768,10.735061
9.937899,32.897949,-1.617432,2.140019,-0.419128,-1.347797,10.644649
9.953737,36.788940,-1.792908,2.010320,-0.600551,-1.302891,10.162651
9.969411,37.498474,-1.335144,2.017949,-0.180225,-1.398093,9.593834
9.985277,36.277771,-0.701904,0.965093,-0.101788,-1.515449,9.184285
10.001953,30.021667,-0.518799,-0.034358,-0.305365,-1.411864,8.878322
10.017685,25.650024,0.091553,0.858281,-0.127535,-1.316662,9.025017
10.033664,21.682739,-0.129700,0.453923,-0.022753,-1.144819,9.392054
10.049350,19.508362,-0.831604,0.095342,-0.400567,-0.930465,9.980629
10.065092,20.149231,-0.396729,1.049016,-0.307760,-0.831671,10.431492
10.081047,22.644043,0.236511,0.385259,-0.433499,-0.584984,10.645846
10.096844,25.932312,0.007629,0.194524,-0.387993,-0.462838,10.533280
10.112903,31.059265,-0.694275,0.896428,-0.271236,-0.607137,10.156064
10.128508,29.518127,-0.717163,0.728582,-0.510139,-0.614322,9.634549
10.144422,28.228760,-0.305176,0.995610,-0.301772,-0.646057,9.290265
10.160431,24.574280,-0.122070,-0.019099,-0.237107,-0.680186,9.159737
10.176256,20.629883,-0.503540,-0.019099,-0.376617,-0.541873,9.245358
10.192144,16.937256,0.228882,0.926946,-0.285007,-0.214953,9.617784
10.207993,15.548706,-0.450134,0.995610,-0.273631,-0.107776,10.035116
10.223841,15.892029,-1.228333,0.934575,-0.480800,0.141306,10.363832
10.240296,18.157959,-1.266479,2.040837,-0.348475,0.193997,10.379400
10.256041,20.896912,-1.213074,2.048467,-0.269440,0.009580,10.191990
10.272036,22.018433,-1.853943,1.461003,-0.320933,-0.058678,9.819564
10.287984,20.126343,-1.289368,1.682256,-0.291594,-0.076641,9.522582
10.303680,17.333984,-0.968933,1.216863,-0.258063,-0.059875,9.286673
10.319374,12.886047,-0.511169,0.133489,-0.131127,0.101788,9.388461
10.335021,9.498596,-0.068665,-0.453975,-0.259860,0.201182,9.603414
10.350660,7.446289,0.061035,-0.331904,-0.185015,0.264051,9.894408
10.366278,7.820129,0.686646,-0.675227,-0.102387,0.365839,10.162651
10.381899,9.765625,0.495911,-0.888850,-0.151485,0.331710,10.318926
10.397444,12.191772,0.381470,-0.598933,-0.255070,0.369432,10.200373
10.413096,13.381958,0.167847,-0.484492,-0.228724,0.413740,9.911174
10.428700,12.809753,-0.251770,-0.324275,-0.280217,0.358055,9.648919
10.444460,10.879517,-0.480652,0.377629,-0.377216,0.311353,9.475879
10.460346,7.888794,-0.747681,0.766729,-0.394579,0.352068,9.345350
10.476187,4.882812,-0.473022,0.148748,-0.349074,0.334704,9.544736
10.492237,3.334045,-0.236511,0.148748,-0.343087,0.416135,9.790225
10.508061,3.059387,-0.465393,0.545476,-0.237706,0.574206,10.012962
10.523947,5.752563,-1.007080,1.087163,-0.228724,0.615520,10.158460
10.539869,5.119324,-0.816345,0.995610,-0.301174,0.658032,10.128522
10.555733,6.195068,-0.503540,0.728582,-0.384401,0.596360,9.912372
10.571697,5.973816,-0.076294,0.583623,-0.205373,0.532892,9.663888
10.587376,4.600525,-0.289917,0.133489,-0.250878,0.470621,9.528569
10.603045,2.258301,-0.221252,-0.133540,-0.332309,0.462838,9.495638
10.618736,0.358582,0.221252,-0.492122,-0.285606,0.518522,9.569284
10.634726,-1.243591,0.366211,-0.896479,-0.111967,0.570613,9.793219
10.650352,-1.777649,0.038147,-0.926997,-0.258662,0.647254,9.944105
10.667014,-1.426697,0.259399,-0.667598,-0.353864,0.667612,10.024937
10.682960,-0.396729,0.137329,-0.522639,-0.296982,0.608934,9.984820
10.698590,-0.083923,0.000000,-0.202205,-0.289199,0.532293,9.832737
10.714533,-0.305176,-0.495911,0.385259,-0.319735,0.461041,9.666882
10.730338,-1.525879,-0.541687,0.514959,-0.325723,0.426313,9.547729
10.746242,-3.311157,-0.503540,0.476812,-0.355062,0.440684,9.563297
10.761897,-4.997253,-0.694275,0.545476,-0.302371,0.465831,9.712986
10.777895,-5.874634,-0.823975,0.644658,-0.283810,0.507145,9.855490
10.793937,-6.050110,-0.984192,0.614141,-0.273631,0.511935,9.983624
10.809770,-5.210876,-0.831604,0.736211,-0.259261,0.496368,9.984820
10.825616,-4.371643,-0.770569,0.911687,-0.226329,0.310155,9.905186
10.841517,-4.394531,-0.671387,0.568364,-0.217348,0.354463,9.801601
10.857441,-5.134583,-0.541687,0.041936,-0.238304,0.326321,9.695621
10.873440,-6.195068,-0.030518,-0.583674,-0.191602,0.255070,9.642333
10.889351,-7.263184,0.274658,-1.079585,-0.182620,0.259261,9.687839
10.905172,-8.117676,0.465393,-1.438166,-0.215552,0.246088,9.802200
10.921058,-8.193970,0.534058,-1.567866,-0.253872,0.295186,9.923748
10.936750,-7.675171,0.572205,-1.499202,-0.329315,0.293390,9.954883
10.952382,-6.912231,0.434875,-1.323726,-0.346679,0.249082,9.914766
10.968141,-6.568909,0.160217,-0.797297,-0.355062,0.202379,9.833935
10.983881,-6.942749,-0.205994,-0.324275,-0.321531,0.003593,9.720171
10.999614,-7.766724,-0.488281,0.102971,-0.349074,0.089813,9.657901
11.015187,-9.048462,-0.778198,0.514959,-0.361648,0.058678,9.683048
11.030835,-10.261536,-0.999451,0.843022,-0.356858,0.066462,9.748312
11.046431,-10.810852,-1.296997,1.445745,-0.301772,0.089813,9.821959
11.062144,-10.925293,-1.564026,1.728032,-0.296982,0.043110,9.905785
11.078027,-10.826111,-1.296997,1.956914,-0.272433,0.040117,9.929136
11.093893,-10.581970,-1.266479,1.720403,-0.217947,0.065264,9.895007
11.109893,-10.818481,-1.251221,1.193975,-0.154479,-0.033530,9.832737
11.126469,-11.360168,-0.732422,0.606511,-0.209564,-0.132924,9.726158
11.143065,-12.550354,-0.312805,-0.301387,-0.203577,-0.252076,9.714184
11.159149,-13.153076,0.144958,-0.797297,-0.156874,-0.258662,9.768670
11.174804,-13.641357,0.473022,-1.041438,-0.174836,-0.291594,9.808187
11.190408,-13.854980,0.732422,-1.522090,-0.264650,-0.279020,9.927341
11.206101,-13.404846,1.121521,-1.903560,-0.164059,-0.337099,9.930334
11.222557,-13.046265,1.052856,-2.018001,-0.261656,-0.409548,9.899199
11.238257,-12.458801,0.801086,-1.773860,-0.211959,-0.495769,9.851897
11.256435,-12.123108,0.579834,-1.232173,-0.165256,-0.551453,9.752503
11.272269,-12.664795,0.129700,-0.965144,-0.386197,-0.562830,9.708196
11.287976,-13.000488,0.091553,-0.362422,-0.365240,-0.643063,9.691431
11.303716,-13.870239,-0.381470,0.247930,-0.339494,-0.700543,9.724362
11.319382,-14.274597,-0.968933,0.850652,-0.325723,-0.700543,9.820762
11.335282,-13.809204,-1.159668,1.102422,-0.165855,-0.717907,9.878242
11.351109,-13.381958,-1.251221,0.904058,-0.261057,-0.753234,9.917760
11.366812,-12.779236,-1.159668,0.766729,-0.221539,-0.792751,9.905785
11.382353,-12.664795,-0.862122,0.507329,-0.213755,-0.935255,9.812978
11.397897,-12.428284,-0.961304,0.324224,-0.170046,-0.933459,9.749510
11.413493,-12.542725,-0.373840,-0.087764,-0.209564,-0.998723,9.750708
11.429120,-12.947083,0.022888,-0.728633,-0.286205,-1.011896,9.751307
11.445037,-13.069153,0.724792,-1.125361,-0.274230,-1.041834,9.795015
11.460876,-13.313293,0.625610,-1.102473,-0.244292,-1.070574,9.827947
11.476676,-12.893677,0.457764,-1.293208,-0.271835,-1.146017,9.827947
11.492558,-12.191772,0.473022,-1.262690,-0.307760,-1.201102,9.798608
11.508483,-11.894226,0.549316,-0.988032,-0.253872,-1.228645,9.798009
11.524403,-11.512756,0.007629,-0.446345,-0.309556,-1.123863,9.767472
11.540222,-11.581421,-0.328064,-0.087764,-0.367037,-1.249003,9.714782
11.556047,-11.779785,-0.076294,-0.194575,-0.361049,-1.340013,9.726757
11.571735,-11.680603,-0.457764,-0.026729,-0.271236,-1.416654,9.731547
11.587441,-11.566162,-0.709534,0.354741,-0.204774,-1.453777,9.757294
11.604605,-11.436462,-0.999451,0.667546,-0.283810,-1.426833,9.769868
11.620528,-11.062622,-0.907898,0.652288,-0.318538,-1.431024,9.842916
11.636175,-10.803223,-0.709534,0.537847,-0.287402,-1.486708,9.754300
11.651802,-10.765076,-0.762939,0.560735,-0.208965,-1.590293,9.704603
11.667807,-10.429382,-0.518799,0.156377,-0.220342,-1.656755,9.718374
11.683931,-10.078430,-0.335693,-0.125911,-0.183219,-1.668730,9.717177
11.699625,-7.919312,0.106812,-0.545527,-0.177830,-1.698069,9.710590
11.715208,-7.843018,0.045776,-0.797297,-0.234113,-1.713038,9.753102
11.730925,-9.300232,0.457764,-0.812556,-0.304167,-1.716630,9.746516
11.746492,-8.590698,0.602722,-0.942256,-0.362845,-1.735790,9.907581
11.762692,-5.950928,0.793457,-0.919368,-0.319735,-1.781895,9.730948
11.779105,-7.423401,0.381470,-0.812556,-0.304167,-1.827999,9.723763
11.795356,-7.156372,0.099182,-0.545527,-0.376018,-1.853745,9.687839
11.811069,-6.759644,0.251770,-0.522639,-0.352068,-1.856739,9.484860
11.826671,-6.629944,-0.007629,-0.431086,-0.305964,-1.927392,9.630957
11.842657,-6.622314,-0.259399,-0.049617,-0.269440,-1.907034,9.623173
11.858508,-6.408691,-0.595093,2.292607,-0.276625,-1.987267,9.659697
11.874341,-5.851746,-0.907898,0.583623,-0.300575,-1.959725,9.704603
11.889938,-5.584717,-0.877380,0.720952,-0.324525,-1.977687,9.722566
11.905566,-4.928589,-0.953674,0.598882,-0.310754,-2.119592,9.705801
11.921290,-4.470825,-0.717163,0.331853,-0.273631,-1.993854,9.692029
11.937039,-4.150391,-0.541687,0.347112,-0.217947,-2.017205,9.680653
11.952828,-3.929138,-0.343323,0.156377,-0.183818,-2.016606,9.635746
11.968617,-3.730774,-0.175476,-0.080134,-0.207768,-2.078278,9.640536
11.984306,-3.311157,0.053406,-0.324275,-0.239502,-2.096241,9.635148
11.999887,-2.983093,0.289917,-0.530269,-0.252076,-2.087858,9.642333
12.015473,-2.693176,0.457764,-0.736262,-0.283810,-2.088457,9.692628
12.032043,-2.113342,0.488281,-0.797297,-0.286205,-2.095043,9.693826
12.048055,-3.631592,0.450134,-1.567866,-0.322130,-1.747167,10.682370
12.063766,4.402161,0.572205,-0.652339,-0.249681,-1.964515,11.494881
12.079391,15.975952,-0.572205,-0.255610,-0.292791,-1.759142,10.551243
12.095024,19.699097,-0.717163,-0.003840,-0.459245,-1.851350,9.961469
12.111075,17.807007,0.473022,-0.492122,-0.354463,-1.751957,9.799207
12.126788,17.799377,1.541138,-2.429988,-0.301772,-1.729803,10.439875
12.142771,24.932861,2.914429,-1.812007,-0.089214,-1.569337,10.366227
12.158750,29.121399,1.106262,-1.285579,-0.063468,-1.426234,10.039906
12.174681,28.503418,-0.320435,-3.269221,-0.477806,-1.628015,10.021943
12.190506,30.097961,2.655029,-2.658870,-0.666414,-1.621428,9.810583
12.206538,33.149719,4.692078,-3.017451,-0.150886,-1.387315,9.964463
12.222375,32.234192,3.227234,-4.573848,-0.023351,-1.136437,10.066251
12.238070,35.461426,2.975464,-5.855586,-0.264650,-1.230441,9.927938
12.253704,35.766602,5.187988,-6.877925,-0.247885,-1.300496,9.984820
12.269718,37.445068,5.424500,-8.213069,-0.223934,-0.956810,10.146484
12.285498,41.374207,4.959106,-9.342219,-0.372426,-0.907712,10.321321
12.301581,43.075562,4.089355,-9.288814,-0.195793,-0.753832,10.305753
12.317717,45.173645,6.149292,-8.953120,-0.382006,-0.396376,10.325512
12.333419,47.027588,6.172180,-9.891536,-0.085023,-0.583187,10.177021
12.349035,48.362732,5.645752,-10.311152,-0.235909,-0.285007,9.857884
12.364584,49.644470,6.744385,-10.158565,-0.234113,-0.178429,10.000987
12.380663,50.781250,6.027222,-10.021235,-0.229323,0.076641,9.970450
12.396299,52.200317,6.484985,-12.088801,-0.299377,0.235311,10.262044
12.411889,54.939270,7.759094,-13.065364,-0.242496,0.062271,9.977036
12.427515,56.076050,7.957458,-14.049556,-0.293390,0.422721,10.051881
12.443374,57.708740,7.934570,-15.224483,-0.382006,1.026865,10.044097
12.459320,58.685303,7.392883,-17.223383,-0.378413,1.189726,10.090201
12.475194,60.554504,8.987427,-18.878962,-0.628094,1.072969,10.072239
12.491072,62.103271,8.613586,-19.771601,-0.384999,0.646057,10.036313
12.506854,63.789368,9.475708,-21.144892,-0.563428,0.935255,10.147083
12.522832,66.116333,8.758545,-22.861506,-0.457449,1.351989,10.080622
12.538566,69.213867,8.941650,-25.394464,-0.573607,1.517245,9.472286
12.554339,70.129395,9.437561,-26.897455,-0.692759,1.831591,9.654308
12.569986,68.923950,9.140015,-27.767206,-0.575403,1.611249,9.842317
12.585788,73.669434,8.377075,-29.956842,-0.778980,2.045347,9.956080
12.601336,79.406738,9.292603,-30.918146,-0.717907,2.444118,9.992604
12.616902,83.343506,10.246277,-32.398251,-0.404758,2.492617,9.736338
12.632421,84.793091,9.910583,-34.290340,-0.418530,2.531536,9.607006
12.648019,87.738037,11.421204,-35.831478,-0.778381,3.024311,9.186680
12.663677,91.026306,13.427734,-36.396053,-0.816103,3.301534,9.144169
12.679441,95.733643,14.450073,-35.335567,-0.750839,2.966830,9.398041
12.695208,95.809937,12.367249,-34.786251,-0.437091,3.061434,7.964622
12.710922,93.559265,11.291504,-31.536127,-0.950224,2.817740,7.270066
12.726631,87.638855,15.960693,-29.056574,-1.497486,2.250720,7.140735
12.742541,84.037781,16.723633,-27.195002,-0.932860,2.189647,7.824513
12.758479,66.810608,7.446289,-28.331781,-0.595162,1.704056,6.158178
12.775054,54.748535,5.691528,-27.072931,-1.599873,2.663861,5.750426
12.790897,49.331665,15.876770,-23.059870,-2.799179,2.453697,6.859320
12.806721,50.033569,23.200989,-17.414118,-2.098037,3.704496,7.519747
12.822330,50.773621,28.755188,-13.942744,-2.138154,4.231401,8.416082
12.838035,54.260254,31.555176,-7.015254,-1.983675,5.346282,8.715460
12.853746,65.368652,36.041260,1.552556,-2.473456,6.121670,9.177699
12.869444,76.423645,40.321350,9.159062,-3.078199,5.671406,8.441830
12.885025,91.484070,47.531128,16.971563,-2.951862,5.529501,9.029806
12.900589,96.916199,50.804138,22.907232,-2.316583,4.509822,8.601098
12.916182,107.246399,51.300049,26.943182,-2.674039,4.303251,6.449173
12.931766,112.525940,59.852600,34.763309,-2.862647,4.139791,6.606646
12.947418,107.917786,66.726685,42.766544,-2.458488,3.540438,5.866584
12.963143,100.242615,67.932129,48.526737,-2.107617,4.519402,6.388699
12.979051,101.104736,69.976807,58.261845,-2.911745,7.679630,7.256295
12.995453,101.135254,76.393127,60.565922,-2.947670,0.425116,4.345747
13.011985,103.424072,85.212708,57.674381,-1.441203,-5.009183,1.625604
13.027951,42.800903,102.447510,69.660164,-1.213676,-2.225572,-2.307617
13.043677,-30.456543,89.508057,86.215950,-0.809517,-0.253872,-4.566121
13.059344,-23.956299,70.106506,89.847542,-2.700983,10.930869,2.771621
13.074974,-44.319153,96.565247,77.236153,-7.596403,17.495018,12.876208
13.091188,-54.359436,72.143555,96.736885,-3.932622,19.617605,19.417604
13.106894,-11.764526,111.968994,166.233032,4.607419,13.102553,14.256338
13.122600,50.834656,103.385925,207.912415,0.531096,1.276545,3.430850
13.138315,63.858032,33.523560,212.635010,-5.820496,13.988710,5.746833
13.153957,94.772339,37.445068,184.162109,0.763412,14.679673,-1.080170
13.169660,70.121765,17.127991,123.279549,-0.365839,14.827566,16.244204
13.185215,54.252625,17.143250,13.935063,-1.302891,6.651568,4.339161
13.200787,80.276489,32.516479,-26.729609,-11.918216,2.218986,1.123248
13.216341,83.229065,66.223145,3.406499,-5.771399,2.236350,-4.258360
13.232509,50.468445,95.649719,19.977545,-0.429307,10.208771,-3.075820
13.248557,-21.888733,115.005493,16.338324,-1.726210,13.686938,-1.721436
13.264439,-72.662354,106.437683,3.742192,0.464634,9.638157,0.095785
13.280141,-70.526123,94.367981,-4.123713,1.322051,3.197950,0.638257
13.295863,-75.721741,72.349548,33.969852,0.211959,7.059919,-0.750256
13.311868,-93.177795,53.497314,58.589909,3.426674,3.379373,3.680530
13.327662,-104.469299,2.883911,89.397408,-0.305365,12.464280,1.938752
13.343561,-117.446899,9.483337,6.679509,1.010698,1.802851,11.200293
13.359447,-72.822571,-11.199951,29.994940,-1.819017,13.768369,-7.286863
13.375429,-85.739136,14.083862,45.536015,1.957928,14.886244,-0.053904
13.391249,-57.067871,34.385681,33.786747,0.061073,1.507665,3.229668
13.407197,-45.616150,18.089294,46.848270,1.178350,12.719350,9.495638
13.423119,-25.680542,13.931274,26.485418,0.861608,1.985471,2.521940
13.438848,-44.845581,8.590698,15.796636,2.783013,8.811276,5.748630
13.454540,-33.157349,0.755310,-0.591304,1.523831,5.356461,2.336925
13.470184,-45.997620,9.696960,-7.785823,3.312911,7.006031,7.192228
13.485869,-46.615601,9.513855,-12.126948,2.809957,5.594167,4.650513
13.501431,-52.726746,1.304626,-20.511652,1.191522,10.233319,6.589880
13.516986,-46.394348,8.338928,-27.843500,-0.332309,7.621551,5.995915
13.532624,-48.439026,2.273560,-34.694698,-0.323926,8.428074,6.168956
13.548219,-34.225464,-8.705139,-37.487057,-0.504750,7.911947,6.923387
13.564075,-37.742615,-8.636475,-28.324152,-0.798739,8.052654,6.550363
13.579988,-34.027100,0.083923,-16.956354,-0.933459,7.660470,6.335410
13.595915,-32.279968,-1.075745,-4.123713,-1.593287,7.319778,6.892251
13.611927,-24.536133,1.724243,-1.873042,-1.647773,6.239625,6.428216
13.627796,-25.321960,-2.365112,1.369451,-0.725691,6.659352,6.843153
13.643801,-23.292542,-1.159668,7.854436,-0.367635,6.289920,6.354570
13.659509,-27.976990,3.234863,13.355229,-0.098196,7.036567,6.825191
13.675381,-26.908875,4.554749,14.575933,0.347278,7.044950,6.518030
13.691217,-24.703979,3.654480,9.792302,0.311951,7.128177,7.056909
13.707127,-19.187927,1.434326,4.184697,0.493973,7.217391,7.307787
13.722833,-13.862610,0.503540,1.117681,-0.556842,6.979087,7.108402
13.738536,-11.726379,0.953674,-0.988032,-0.077838,6.435418,6.862913
13.754215,-11.863708,0.427246,-2.391841,0.070653,6.470744,6.840160
13.769894,-12.382507,-0.114441,-4.764583,-0.188009,6.474337,6.916800
13.785618,-12.275696,-1.800537,-4.955317,-0.009580,6.549181,7.167080
13.802816,-10.147095,-0.419617,-1.743342,-0.674797,6.791078,7.366466
13.818409,-5.950928,-0.274658,-2.849605,-0.413141,6.615044,7.358682
13.833960,-3.227234,-0.778198,-1.430537,-0.079036,6.672524,7.230548
13.849563,-1.350403,0.015259,-0.553157,-0.467628,6.378536,7.102415
13.865202,-0.556946,-0.656128,0.102971,-0.114362,6.342012,7.145525
13.881060,0.228882,1.808167,1.537297,-0.327519,6.485114,7.029366
13.896954,1.937866,-1.808167,2.391789,-0.263452,6.677314,7.215579
13.912759,5.012512,-0.122070,1.941655,-0.220342,6.755153,7.261085
13.929354,8.369446,-0.175476,0.667546,-0.077838,6.642587,7.089242
13.945669,10.131836,-1.106262,0.263188,-0.114362,6.553372,6.974281
13.961292,10.795593,-0.350952,0.354741,-0.156275,6.516848,6.928776
13.976991,10.971069,-0.495911,-0.171687,-0.083826,6.590495,6.958115
13.992999,11.924744,-1.052856,-0.988032,-0.267045,6.688092,7.066489
14.008698,14.228821,-1.007080,-0.682856,-0.216151,6.805448,7.132951
14.024285,17.265320,-0.396729,0.095342,-0.329315,6.887477,6.987453
14.040620,19.798279,-0.328064,0.408147,-0.117955,7.010821,6.989849
14.056201,21.842957,-0.503540,1.117681,-0.498164,6.869515,6.688076
14.071779,22.361755,-0.289917,1.972173,-0.282612,6.850954,6.593473
14.087356,22.399902,-0.595093,2.407048,-0.159868,6.935977,6.608442
14.102916,25.245667,-0.854492,2.727483,-0.159868,7.023993,6.548566
14.118456,24.917603,-0.244141,2.529119,-0.027543,7.137158,6.719212
14.134070,27.442932,-0.495911,2.162908,-0.447869,7.226373,6.661731
14.151757,29.586792,-1.258850,1.087163,-0.003593,7.135362,6.419834
14.167534,30.570984,-1.579285,1.010869,-0.179028,7.163504,6.243201
14.184044,30.487061,-0.022888,0.751470,0.234113,7.540120,6.189912
14.199935,31.639099,-0.205994,0.034307,-0.227527,7.391030,6.201288
14.215804,33.012390,-0.465393,-0.713374,-0.234712,7.515571,6.171949
14.232507,33.996582,-1.281738,0.347112,-0.349074,7.566465,6.058186
14.248588,35.476685,-1.190186,1.377080,-0.508942,7.679031,5.909695
14.264310,36.956787,0.030518,2.910588,-0.323926,7.512578,5.764796
14.280124,37.437439,-0.862122,3.978703,-0.369432,7.725734,5.655224
14.296348,37.544250,-0.701904,4.405950,-0.228126,7.629335,5.560022
14.312231,38.169861,-0.045776,5.298589,-0.234113,7.910151,5.605527
14.328123,39.588928,-0.228882,5.557988,0.520917,8.383167,5.682168
14.343976,52.658081,1.869202,9.838078,-1.217269,7.159911,6.058785
14.359878,41.946411,1.815796,9.365056,-0.049098,8.678952,4.089480
14.375694,41.206360,-0.190735,6.771062,0.089214,8.579558,3.776331
14.391615,37.673950,1.701355,8.907292,-0.773591,9.051976,3.520064
14.407541,32.356262,3.074646,10.608647,-0.136516,8.836425,3.590717
14.423235,26.954651,2.693176,10.692571,-0.034129,8.720865,3.535033
14.438946,24.589539,6.912231,10.745976,-0.149090,9.316626,2.345906
14.454661,15.975952,5.432129,8.869145,0.405956,9.228609,2.969808
14.470310,7.392883,3.013611,3.948186,0.225731,8.043674,3.062016
14.485934,-4.844666,-0.633240,0.202153,0.328716,8.502918,3.270383
14.501562,-13.153076,-3.334045,-2.452876,0.823288,8.224497,3.701487
14.517164,-17.326355,-3.265381,-4.482295,0.462838,8.296947,4.300840
14.532736,-18.913269,-3.509521,-5.359675,-0.080233,8.887319,4.734339
14.548424,-14.984131,-0.053406,-8.441951,-0.769999,8.070617,4.997192
14.564326,-13.267517,-4.272461,-8.792903,0.491578,8.395143,5.043895
14.580193,-9.948730,-4.615784,-8.724238,-0.324525,8.186775,4.721167
14.596051,-11.901855,-2.174377,-4.848506,-0.562830,8.290958,4.852892
14.612009,-10.452271,-0.175476,-2.246882,-0.548459,8.344847,4.824152
14.627834,-9.941101,-0.144958,0.560735,-0.492177,8.334668,5.170233
14.643614,-6.782532,1.174927,2.613042,-0.221539,8.335267,5.090598
14.659543,-5.317688,2.456665,3.864263,0.003593,8.178991,5.112752
14.675310,-4.089355,1.701355,3.070806,0.210163,8.102950,5.010365
14.691023,-4.615784,0.968933,1.491521,0.111368,7.988588,4.983421
14.706698,-4.570007,-0.228882,-0.461604,0.295785,8.113728,5.076228
14.722312,-4.005432,-1.419067,-2.101924,0.097597,8.180788,5.206757
14.738063,-1.632690,-1.358032,-2.109553,-0.143701,8.302335,5.177418
14.753670,0.556946,-0.770569,-1.445796,-0.079036,8.299341,5.124128
14.769313,2.044678,-0.572205,-0.408198,-0.271835,8.146659,5.009168
14.784892,2.029419,-0.152588,0.781987,-0.131726,8.098759,5.002581
14.800734,1.777649,0.228882,1.415227,-0.039518,8.131091,4.998390
14.816672,2.204895,0.358582,1.399968,-0.038919,8.234077,5.072636
14.832713,3.555298,0.328064,1.171086,0.043110,8.331675,5.021741
14.848736,4.852295,0.000000,0.835393,0.037722,8.346045,4.830739
14.864858,4.806519,-0.045776,0.461553,-0.020956,8.314909,4.678056
14.880688,3.425598,-0.030518,0.232671,-0.003593,8.313711,4.593033
14.896456,1.258850,-0.190735,0.232671,-0.036524,8.317304,4.587045
14.912255,-0.801086,-0.160217,0.438665,-0.061672,8.332871,4.676858
14.928077,-1.693726,-0.228882,0.148748,0.020956,8.387359,4.793017
14.943911,-1.625061,-0.473022,-0.095393,0.018561,8.325088,4.855288
14.959663,-1.472473,-0.518799,-0.614192,0.073647,8.274194,4.850497
14.975532,-1.434326,-0.709534,-1.079585,0.023950,8.243657,4.831337
14.991364,-1.983643,-0.709534,-1.224543,-0.090412,8.239466,4.855288
15.007007,-2.357483,-0.694275,-0.759150,-0.089813,8.250842,4.913367
15.023322,-1.976013,-0.404358,-0.164058,-0.097597,8.270002,5.015155
15.039214,-0.976562,-0.183105,0.423406,-0.064666,8.249046,5.072037
15.055085,0.373840,1.892090,0.362371,0.007185,8.202942,5.077425
15.070883,1.266479,-0.274658,0.232671,0.033530,8.186775,5.058864
15.086942,1.998901,-0.297546,0.049565,-0.138312,8.196955,5.004377
15.102538,2.555847,-0.076294,0.049565,-0.052690,8.261620,4.945101
15.118215,2.784729,-0.091553,0.431035,-0.105381,8.305329,4.854689
15.134121,2.510071,0.053406,0.820134,-0.034129,8.295150,4.796011
15.149665,2.113342,-0.030518,0.911687,-0.020358,8.293354,4.769666
15.165494,1.457214,0.122070,0.652288,0.047900,8.300539,4.774456
15.181291,0.709534,-0.267029,0.141118,0.050894,8.316706,4.773258
15.197092,0.282288,-0.480652,-0.270869,0.014969,8.331076,4.760684
15.212846,-0.015259,-0.457764,-0.568416,-0.010179,8.322094,4.794214
15.228648,-0.465393,-0.389099,-0.507380,-0.063468,8.325088,4.783437
15.244644,-1.052856,-0.228882,-0.316646,-0.038320,8.276588,4.787628
15.260564,-1.579285,-0.335693,-0.103022,-0.009580,8.268207,4.866065
15.276351,-1.968384,-0.518799,-0.110652,0.152084,8.271799,4.921749
15.292249,-1.602173,-0.343323,-0.408198,-0.007185,8.259824,5.000186
15.308362,-0.617981,-0.518799,-0.469233,-0.033530,8.240664,5.163047
15.324126,0.167847,-0.282288,-0.354792,-0.067659,8.216713,4.991205
15.339775,0.762939,-0.373840,-0.156428,-0.058678,8.202343,4.957675
15.355472,1.167297,-0.221252,0.171636,-0.065264,8.250842,4.905583
15.372101,1.167297,-0.152588,0.484441,-0.052092,8.279583,4.950490
15.387731,1.441956,0.007629,0.659917,-0.030536,8.275990,4.919354
15.403357,1.831055,-0.022888,0.545476,0.019160,8.297545,4.891811
15.419145,2.044678,-1.953125,0.316594,-0.008383,8.298742,4.868460
15.435027,1.937866,-0.312805,0.194524,-0.007185,8.264614,4.816369
15.451136,1.327515,-0.289917,-0.003840,-0.019160,8.300539,4.779844
15.466840,0.602722,-0.106812,0.026677,-0.029339,8.314909,4.759487
15.482787,-1.869202,-0.190735,0.057195,-0.024549,8.295749,4.796011
15.498560,-0.312805,-0.144958,0.049565,-0.019160,8.308323,4.810980
15.514314,-0.724792,-0.312805,-0.110652,0.010179,8.142467,4.857084
15.530072,-0.892639,-0.312805,-0.415828,-0.002994,8.269403,4.882830
15.545812,-1.029968,-0.480652,-0.499751,-0.045505,8.125104,4.894805
15.561681,-0.671387,-0.572205,-0.499751,-0.046104,8.259225,4.913965
15.577528,-0.595093,-0.442505,-0.370051,-0.058678,8.238269,4.931329
15.593340,-0.213623,-0.259399,-0.125911,-0.040117,8.245454,4.952286
15.609264,0.259399,-0.175476,0.263188,-0.049098,8.230485,4.955279
15.624949,0.419617,-0.068665,0.255559,-0.032333,8.240065,4.949891
15.640626,0.801086,-0.213623,0.156377,-0.012574,8.253836,4.968452
15.656248,1.213074,-0.274658,0.148748,-0.004191,8.249645,4.928934
15.671977,1.419067,-0.228882,0.072454,-0.024549,8.292755,4.910972
15.687546,1.663208,-0.190735,0.148748,-0.044308,8.264015,4.867861
15.703110,1.472473,-0.205994,0.263188,-0.032932,8.275392,4.821757
15.718727,0.999451,0.015259,0.347112,-0.029339,8.277187,4.810980
15.734285,0.541687,-0.091553,0.423406,-0.000599,8.292156,4.834331
15.749921,0.221252,-0.190735,0.148748,0.029339,8.304730,4.827146
15.765712,0.099182,-0.274658,-0.087764,0.008981,8.295150,4.711586
15.781535,-1.831055,-0.267029,-0.377681,-0.016765,8.283175,4.851695
15.797321,-0.244141,-0.495911,-0.408198,-0.027543,8.275392,4.853491
15.813393,-0.473022,-0.373840,-0.324275,-0.044308,8.270002,4.881034
15.829309,-0.633240,-0.335693,-0.110652,-0.056283,8.259225,4.889417
15.845209,-0.617981,-0.251770,0.049565,-0.035925,8.271200,4.909774
15.861438,-0.404358,-0.244141,0.011418,-0.028740,8.266410,4.935521
15.878203,0.274658,-0.305176,0.057195,-0.019160,8.236472,4.939113
15.894148,0.541687,-0.343323,-0.072505,-0.016765,8.259824,4.947496
15.910246,0.816345,-0.312805,0.034307,-0.021555,8.234676,4.901990
15.925877,0.839233,-0.175476,0.026677,-0.035327,8.261021,4.909774
15.941788,0.991821,-0.175476,0.301335,-0.028740,8.275990,4.873250
15.957602,1.182556,-0.160217,0.377629,-0.043110,8.287366,4.863071
15.973532,0.999451,-0.068665,0.438665,-0.015568,8.295150,4.850497
15.989253,0.778198,-0.198364,0.102971,0.013771,8.294552,4.834930
16.004905,0.724792,-0.335693,0.034307,0.019160,8.275990,4.839121
16.020491,0.511169,-0.518799,-0.103022,-0.047900,8.295150,4.828343
16.036099,0.274658,-0.450134,-0.148799,-0.014370,8.292755,4.830739
16.051651,-0.114441,-0.358582,-0.026729,-0.037722,8.285570,4.832535
16.067328,-0.267029,-0.213623,-0.118281,-0.031135,8.280780,4.872652
16.083103,-0.312805,-0.251770,-0.034358,-0.008981,8.258027,4.873849
16.098921,-0.411987,-0.259399,-0.072505,-0.014370,8.286768,4.882830
16.114692,-0.335693,-0.259399,-0.080134,-0.013173,8.128098,4.908576
16.130468,-0.038147,-0.343323,-0.232722,-0.024549,8.272996,4.905583
16.146341,0.114441,-0.259399,-0.186946,-0.021555,8.270002,4.916959
16.162347,0.389099,-0.335693,0.019048,-0.046703,8.256830,4.900194
16.178243,0.434875,-0.244141,0.034307,-0.029339,8.246052,4.887620
16.194005,0.762939,-0.175476,0.209783,-0.037123,8.287366,4.911571
16.209770,0.885010,-0.114441,0.240300,0.000000,8.264614,4.908576
16.225505,1.113892,-0.205994,0.316594,0.000000,8.263416,4.874448
16.242016,1.045227,-0.160217,0.141118,-0.020956,8.419092,4.852892
16.257810,0.907898,-0.297546,0.072454,-0.037123,8.295150,4.825949
16.273924,0.663757,-0.259399,0.118230,-0.022154,8.277187,4.841516
16.289615,0.289917,-0.350952,0.095342,-0.045505,8.292156,4.831936
16.305270,0.282288,-0.152588,-0.064875,-0.032333,8.275990,4.844510
16.321008,0.137329,-0.221252,0.087712,-0.019759,8.272397,4.856485
16.336879,-0.160217,-0.389099,-0.118281,-0.008383,8.287366,4.866664
16.352477,-0.198364,-0.350952,-0.141169,-0.016166,8.264015,4.724160
16.368124,-0.160217,-0.335693,-0.209834,-0.021555,8.265212,4.857084
16.383743,-0.251770,-0.343323,-0.103022,-0.050894,8.292755,4.884626
16.399503,-0.175476,-0.389099,-0.034358,-0.028740,8.277187,4.863670
16.415258,0.198364,-0.320435,-0.049617,-0.039518,8.260423,4.891811
16.431071,0.251770,-0.404358,0.072454,-0.023351,8.255033,4.910972
16.446883,0.419617,-0.236511,0.102971,-0.033530,8.251441,4.891811
16.462779,0.671387,-0.167847,0.026677,-0.020358,8.279583,4.899595
16.479126,0.846863,-0.213623,0.125859,-0.026944,8.268207,4.899595
16.495324,-22.308350,-1.991272,-0.057246,-0.022753,11.633807,9.784837
16.510915,39.482117,0.213623,-2.170588,-0.708327,10.120754,8.242444
16.526658,107.765198,0.061035,-10.265376,1.555565,13.608501,8.071200
16.542696,114.990234,-1.953125,-13.439204,-0.016765,8.858579,7.035953
16.558424,116.798401,-4.333496,-9.746577,-1.302292,11.335628,5.491165
16.574194,130.439758,-2.845764,-21.114374,0.467628,8.341254,5.145085
16.590031,151.245117,-13.320923,-18.100763,-0.064666,7.785610,5.415722
16.605644,164.863586,-6.591797,-18.222834,-0.795146,7.936496,5.577985
16.621229,177.604675,-2.723694,-9.929683,0.011376,6.828201,3.827225
16.636784,188.461304,-1.686096,-8.792903,-0.463436,7.902966,4.375685
16.652358,205.986023,-6.416321,-3.368403,0.011975,4.781656,3.002740
16.667938,198.204041,-3.234863,-2.620723,-0.113165,6.143225,1.867501
16.683679,199.714661,-3.601074,3.658269,0.305365,1.657952,1.051996
16.699495,146.621704,0.083923,11.295293,-1.023272,-0.458047,-1.476545
16.715206,80.871582,7.980347,10.715459,-0.974174,2.062711,-0.431718
16.731771,66.535950,8.804321,6.298039,-0.829275,8.830437,1.298684
16.747905,97.862244,5.104065,15.209172,-0.180824,8.926837,-0.269456
16.763587,149.871826,-14.778137,45.116398,-5.052893,19.617605,-1.753769
16.779283,97.190857,6.187439,10.341619,0.848436,19.617605,-4.651144
16.795130,71.495056,3.288269,-5.619075,0.646655,-13.191768,4.042178
16.810798,114.006042,1.861572,-2.086665,-0.949625,-7.577842,1.859717
16.826557,94.894409,-26.168823,-4.467036,0.725092,19.527792,-5.345101
16.842428,80.642700,56.381226,-5.771663,-0.477806,6.222261,1.195698
16.858086,50.575256,52.749634,8.815740,4.356541,-2.141746,-7.640727
16.873701,91.392517,-29.670715,-26.897455,1.336421,10.277029,-3.642841
16.889376,80.009460,7.240295,5.275701,-6.716832,9.012459,-7.096459
16.904909,99.258423,51.284790,5.413030,0.016765,7.929910,-4.327218
16.920499,94.825745,10.993958,-9.365108,3.312312,8.805289,-4.507442
16.936174,89.553833,-2.082825,-4.383113,-3.153043,7.921527,-6.701281
16.952075,94.406128,22.384644,-5.573298,0.653242,7.982600,-6.071989
16.967661,77.690125,-2.296448,-6.069209,1.308878,5.990542,-6.091748
16.983422,69.976807,5.584717,-0.537898,-0.324525,7.940088,-7.336559
16.999100,64.117432,2.037048,0.400518,1.160986,7.249125,-6.756366
17.014963,62.545776,-9.208679,2.361272,-0.811313,6.728209,-6.363583
17.030805,63.858032,-1.327515,1.537297,-0.005389,6.999444,-6.442019
17.046676,62.957764,-10.780334,3.871892,0.127535,6.655759,-6.564764
17.062568,58.914185,-7.263184,2.437566,-0.417931,6.591094,-6.909647
17.078497,56.312561,-6.958008,2.407048,0.443079,6.468948,-7.024608
17.094401,50.666809,-8.094788,2.986882,0.184417,6.340216,-6.988683
17.110257,47.561646,-5.462646,0.614141,-0.061073,6.590495,-6.850969
17.125927,46.371460,-3.509521,0.354741,0.046104,6.661148,-6.812649
17.141601,47.950745,-3.425598,-0.865962,-0.263452,6.576125,-6.646195
17.157292,48.751831,-0.724792,-1.598384,-0.463436,6.571335,-6.982695
17.173082,49.125671,0.389099,-0.850703,-0.479004,6.337821,-6.897073
17.188734,48.301697,3.890991,-1.712825,-0.367635,5.954019,-6.948566
17.204321,34.469604,20.248413,3.414128,-1.365161,6.219866,-7.773651
17.219930,34.355164,-7.568359,-0.850703,1.217269,4.492458,-6.413280
17.235478,27.267456,8.804321,0.072454,-1.092129,6.369555,-9.361548
17.251152,31.967163,1.129150,-1.728083,0.255070,5.019362,-6.962936
17.266985,29.403687,2.304077,-1.964595,0.188009,5.879174,-8.557421
17.282842,28.106689,2.113342,-0.728633,0.170046,5.093608,-8.195773
17.298646,22.079468,0.984192,-0.782039,0.260458,4.913981,-8.212538
17.314522,19.355774,-0.518799,-0.110652,0.099992,5.195995,-8.489162
17.332163,15.075684,-0.679016,-0.278499,0.352068,4.739145,-8.419707
17.348105,8.041382,-3.074646,0.545476,-0.175435,4.990023,-8.582568
17.364101,4.058838,-2.296448,1.132939,-0.098795,4.931345,-8.378992
17.380064,2.143860,-3.700256,1.651738,-0.235311,5.007986,-8.408331
17.395932,-1.960754,-3.562927,1.895879,-0.236508,4.947512,-8.375400
17.411832,-6.240845,-3.997803,2.361272,-0.083826,4.892426,-8.448447
17.428070,-10.581970,-3.662109,2.529119,-0.005389,5.054689,-8.437071
17.444534,-12.817383,-3.402710,0.484441,-0.004790,-0.561632,-7.856877
17.460116,-29.144287,-11.619568,4.726384,-1.022075,-7.169491,-14.095304
17.476161,-129.554749,4.112244,4.596684,0.199984,-4.512815,-8.051473
17.492075,-184.684753,-8.987427,1.758550,-0.220342,6.260581,-9.972878
17.507915,-177.703857,-13.870239,-19.657160,0.155676,10.217752,-2.786621
17.523481,-168.617249,-3.067017,10.234807,0.355660,8.327483,-6.876117
17.539454,-133.209229,1.182556,8.678411,-0.432900,8.951385,-7.016226
17.555056,-125.373840,2.418518,4.718755,1.287323,7.975415,-7.185673
17.570650,-112.190247,-10.818481,-1.956965,0.815504,7.428752,-8.169428
17.586256,-86.738586,-2.754211,6.412480,-0.783171,9.836346,-6.187549
17.601820,-50.445557,-0.778198,-0.537898,-0.316143,9.652528,-4.200281
17.617578,-19.401550,-3.402710,3.932927,1.348995,11.966116,-0.791570
17.633323,33.775330,-10.025024,-2.025630,0.301174,11.961926,0.827463
17.649126,85.273743,-10.833740,1.544927,0.325723,10.981165,-0.822106
17.664899,79.032898,-7.164001,3.108953,-0.611329,9.557325,-1.714850
17.681666,65.330505,-2.090454,3.955815,0.283211,6.905440,-2.745307
17.697728,39.855957,-2.883911,1.201604,-0.140707,6.140830,-3.921262
17.713439,5.355835,-1.960754,-1.056697,0.065863,6.910829,-3.818276
17.729103,-26.100159,1.136780,-1.346614,-0.806523,5.729486,-3.114739
17.745201,-42.678833,3.448486,0.308965,0.113763,7.683223,-4.543967
17.760965,-55.915833,3.723145,-1.079585,-0.171244,8.749605,-5.499579
17.776618,-52.619934,5.126953,-2.689387,-0.165256,7.911947,-5.508561
17.792283,-34.950256,6.179810,-0.789668,-0.462239,8.831036,-6.022891
17.807876,-25.527954,4.455566,-0.118281,-0.241897,8.349637,-6.238443
17.823477,-11.711121,0.450134,-1.171138,0.265248,8.190967,-5.838475
17.839163,0.175476,-1.480103,-0.743892,-0.029938,8.606503,-5.646873
17.854736,13.381958,-2.227783,2.613042,-0.252675,8.666378,-6.068397
17.870304,26.298523,-2.685547,1.720403,0.000599,8.489745,-5.800753
17.885860,31.532288,-4.646301,0.263188,-0.026345,8.264614,-5.381625
17.901556,33.432007,-2.929688,0.728582,-0.080832,8.006550,-4.890047
17.917311,33.439636,-2.197266,1.186345,-0.002395,7.861651,-4.356556
17.933113,25.192261,-0.343323,-1.583125,0.298779,7.103029,-4.427209
17.948849,17.715454,0.442505,-2.071406,0.123344,7.847281,-4.427209
17.964730,11.703491,2.525330,-1.903560,-0.076042,7.805967,-4.445172
17.980609,5.744934,3.768921,-1.308467,0.211959,8.132289,-4.728383
17.996612,5.134583,2.784729,-3.116633,0.240699,7.847880,-5.042729
18.012583,8.003235,2.784729,-3.520991,-0.265847,8.316107,-5.469642
18.028471,14.709473,2.761841,-1.438166,-0.004790,8.131690,-5.831888
18.044237,24.551392,1.213074,0.026677,0.023351,8.122708,-5.980380
18.059963,31.036377,-2.021790,-0.766780,0.034129,7.987390,-6.045045
18.075592,37.055969,-5.142212,-0.423457,-0.299377,7.917934,-5.753451
18.091274,39.932251,-4.997253,1.705144,-0.195194,8.017328,-5.608553
18.107079,44.494629,-6.156921,1.758550,-0.174238,7.739506,-5.266664
18.122991,47.607422,-6.752014,0.781987,-0.106578,7.926916,-4.933756
18.138545,48.858643,-5.767822,-0.110652,-0.188009,7.698192,-4.734371
18.154108,51.101685,-3.471375,-0.843074,-0.225731,7.713161,-4.705032
18.169664,53.047180,-0.846863,-2.101924,-0.177231,7.586225,-4.863702
18.185400,53.627014,2.082825,-3.635432,-0.064666,7.219188,-5.014588
18.201113,56.404114,3.883362,-5.176570,-0.097597,6.688691,-4.868492
18.216843,44.960022,16.914368,4.909490,-0.668210,7.437134,-6.273769
18.232759,62.973022,15.151978,3.482793,1.954935,2.270478,-10.850652
18.248504,49.957275,6.263733,-10.616328,0.493374,5.541476,-6.518062
18.264306,68.435669,2.540588,-5.733516,-1.444197,7.316186,-8.116138
18.280052,77.903748,8.201599,1.583074,1.024470,6.339617,-7.923938
18.295786,85.540771,2.380371,-4.665401,0.971180,6.315068,-7.209024
18.311596,90.599060,-1.838684,-3.086116,-0.676593,6.000123,-7.662881
18.327532,90.309143,3.120422,0.736211,0.203577,5.178032,-6.882703
18.343798,86.845398,0.137329,-0.850703,-0.290396,4.882846,-7.583845
18.359570,83.023071,-2.296448,-3.147151,-0.309556,5.103188,-7.080292
18.375258,79.597473,1.960754,-0.469233,1.089734,4.894222,-7.813767
18.391503,78.720093,0.595093,-1.529719,0.514929,4.796625,-7.613783
18.407502,82.061768,2.281189,-2.742793,0.151485,4.697831,-8.848415
18.423596,83.305359,-0.213623,-1.270320,-0.686772,4.331393,-8.756207
18.439391,85.922241,-0.648499,-1.056697,-0.665815,4.205654,-9.615420
18.455030,93.452454,-1.998901,-1.552607,-0.189207,3.879932,-9.726191
18.471007,91.796875,-2.380371,-0.499751,-0.139510,3.735632,-9.072350
18.486700,98.281860,-0.976562,-0.415828,-0.446072,3.276387,-9.435794
18.502533,101.341248,-1.518250,0.240300,-0.943039,3.658991,-8.737646
18.518293,102.638245,-2.563477,-0.331904,-0.328118,2.678829,-8.748424
18.534081,101.448059,0.495911,-0.659968,-0.397573,2.138154,-9.545366
18.549786,99.380493,1.594543,-1.491572,-0.371827,2.126777,-8.849613
18.565556,97.900391,1.434326,-2.513911,-0.469424,1.812431,-10.050117
18.581402,97.801208,1.770020,-4.161860,0.120948,1.545985,-9.598656
18.597275,95.726013,2.067566,-3.902461,-0.191003,0.420925,-9.545965
18.613083,99.357605,1.853943,-4.238154,-0.610730,0.941243,-10.445294
18.628891,103.065491,2.082825,-2.971675,0.422122,0.482596,-9.947729
18.644603,107.261658,1.586914,-3.673579,0.950823,0.020956,-9.930964
18.660323,104.316711,0.305176,-5.085017,0.005988,0.225132,-8.072430
18.675959,109.230042,-1.914978,-0.263240,-0.306563,-0.002395,-9.257365
18.691645,105.506897,-1.609802,0.728582,0.164059,-1.087339,-10.431523
18.707357,105.964661,-1.014709,1.293157,0.017364,-1.634601,-10.483615
18.723336,101.234436,-1.007080,2.819036,-0.869991,-1.702260,-10.665038
18.738914,102.302551,-2.616882,6.481145,-0.098196,-1.648971,-8.769979
18.754466,99.067688,-2.944946,0.629399,0.250280,-2.513573,-8.931643
18.770060,101.585388,-2.281189,3.269170,-0.219144,-2.579436,-9.699246
18.785650,102.920532,-2.182007,4.581426,-0.113165,-3.116519,-10.033352
18.801379,105.094910,-1.701355,1.712773,-0.143102,-3.193758,-10.387216
18.817131,104.667664,-2.067566,1.560186,-0.505948,-3.463797,-9.504052
18.832840,99.548340,-3.097534,2.948735,-0.099393,-4.046984,-8.154459
18.849044,100.715637,-1.075745,0.095342,-0.171244,-4.254153,-8.767584
18.864978,97.686768,-1.411438,1.338933,-0.535287,-4.509223,-8.843027
18.880857,94.757080,-0.839233,3.459905,-0.229323,-5.281018,-7.880827
18.896738,93.498230,-0.869751,1.277898,0.423918,-4.605024,-8.498743
18.912564,95.489502,1.632690,-0.957515,-0.343087,-6.012697,-9.853725
18.928449,94.535828,1.258850,1.369451,-0.626298,-5.860613,-9.074745
18.944139,92.277527,-0.640869,-1.430537,0.053888,-5.831274,-7.785625
18.959860,89.424133,0.030518,-0.438716,-0.002395,-6.183940,-7.671862
18.975576,89.408875,2.105713,0.110601,-0.837658,-7.014413,-7.287462
18.991306,86.761475,-0.709534,0.858281,-0.074844,-6.747369,-7.143162
19.006929,83.984375,-0.503540,-2.033259,0.253872,-6.547983,-7.001257
19.022568,80.345154,-0.099182,-1.132991,0.047302,-7.021000,-7.452119
19.038149,77.987671,1.228333,0.453923,-0.225132,-6.998247,-7.313208
19.053774,75.302124,-0.213623,0.331853,0.886157,-7.953860,-6.675534
19.069366,74.081421,0.068665,-1.781489,0.300575,-7.769444,-6.842587
19.085076,73.898315,0.106812,-1.132991,-0.396974,-7.674840,-6.907851
19.100955,72.700500,0.610352,0.530217,0.331710,-7.047345,-6.028879
19.116731,68.832397,0.595093,1.316045,0.053888,-8.240664,-6.474352
19.132314,65.979004,-0.778198,-0.453975,-0.252675,-7.761061,-6.182160
19.147944,63.186646,-1.014709,-1.132991,-0.209564,-7.455097,-5.621127
19.163904,58.700562,-0.198364,-0.896479,-0.316143,-8.530460,-5.679805
19.179762,57.464600,0.289917,-2.155330,-0.373623,-8.698711,-5.353483
19.195772,53.192139,-1.647949,-2.246882,0.044308,-9.585467,-4.917590
19.211494,52.513123,-1.213074,-3.543880,-0.223336,-8.909472,-4.949324
19.227199,49.514771,-1.548767,-2.346065,-0.126337,-8.132888,-5.191820
19.242883,49.140930,-8.270264,-6.427791,-1.262175,-9.030421,-5.899548
19.258625,40.390015,-4.928589,-10.189082,0.298779,-11.368559,-4.189504
19.274262,35.896301,-7.286072,-11.562373,0.459844,-8.677155,-4.152381
19.289895,21.865845,-9.262085,-16.651178,0.296384,-9.661509,-3.496146
19.305813,14.724731,-8.728027,-15.544917,-0.208965,-9.085506,-3.636254
19.322029,6.439209,-9.262085,-13.668086,-0.300575,-9.401649,-4.009279
19.338623,0.190735,-8.102417,-10.829951,-0.155676,-8.884325,-4.605639
19.354949,-9.414673,-4.928589,-6.511714,0.963995,-9.935140,-4.014069
19.370678,-11.093140,-0.518799,-0.980403,0.771795,-8.881331,-4.379908
19.386650,-17.379761,1.083374,4.398320,0.022753,-8.571177,-5.001415
19.402317,-18.135071,5.409241,9.914372,0.576601,-9.150172,-5.451679
19.417876,-18.547058,8.750916,11.989568,0.687969,-8.739427,-5.052310
19.433724,-17.845154,6.706238,14.446233,-0.512534,-9.008866,-4.972675
19.449673,-19.309998,8.285522,14.141057,-0.601749,-8.940608,-4.987644
19.465588,-21.278381,5.805969,12.615178,-0.049697,-8.665180,-4.916991
19.481495,-27.587891,5.714417,11.592839,-0.329315,-8.557405,-4.685273
19.497273,-28.335571,5.439758,8.693669,0.467628,-8.661588,-5.251096
19.513050,-31.127930,0.968933,2.864812,-0.243693,-8.756191,-5.261275
19.528852,-32.196045,-0.358582,1.438115,-0.359253,-8.470585,-5.463654
19.544447,-33.592224,-1.029968,-0.423457,-0.447869,-8.348439,-5.397192
19.560071,-35.530090,-0.015259,-1.049067,-0.468226,-8.355624,-5.504370
19.575881,-37.994385,-1.342773,-3.856685,0.023950,-8.337063,-5.582807
19.591479,-41.122437,-2.883911,-6.702449,-0.172441,-7.973020,-5.714532
19.607148,-43.235779,-3.021240,-6.893184,-0.116158,-8.146659,-5.893560
19.623464,-44.059753,-3.028870,-6.511714,0.186812,-8.146659,-6.139648
19.639252,-44.639587,-1.930237,-5.275752,0.305365,-7.865244,-6.124081
19.654866,-46.165466,-2.891541,-4.627254,0.150287,-7.937694,-6.206709
19.670789,-46.783447,-2.647400,-2.849605,0.250280,-7.731722,-6.371965
19.686474,-48.767090,-1.312256,-1.415278,-0.100591,-7.589817,-6.395317
19.702167,-51.643372,-0.694275,0.400518,-0.636476,-7.479047,-6.529438
19.717812,-53.176880,-0.350952,3.597234,0.177231,-7.571854,-7.016226
19.733580,-54.260254,0.877380,3.665898,0.119751,-7.547904,-6.919227
19.749428,-55.168152,0.930786,3.078435,-0.143102,-7.400012,-6.925814
19.765287,-55.747986,-0.144958,3.139470,0.180225,-6.982679,-7.274289
19.781161,-56.320190,0.236511,3.772710,0.024549,-6.968309,-7.262913
19.797010,-59.448242,1.045227,3.025029,-0.125140,-6.847361,-7.087477
19.813223,-59.921265,-0.205994,0.522588,-0.170645,-6.760541,-7.604203
19.829012,-60.157776,0.373840,1.575444,-0.360450,-6.577322,-7.782632
19.844684,-61.470032,0.633240,0.781987,0.360450,-6.310278,-7.902982
19.860477,-62.065125,-1.243591,-2.796199,-0.240699,-6.452183,-8.223914
19.876350,-66.238403,-1.747131,-1.117732,-0.573008,-5.861810,-7.922740
19.892104,-64.598083,-0.625610,1.743291,-0.091011,-5.861810,-8.194575
19.907779,-65.376282,0.785828,-0.774409,0.191602,-5.650450,-8.625679
19.923322,-63.003540,-1.304626,-2.147700,-0.528102,-5.491181,-8.288580
19.938920,-66.368103,-0.396729,1.682256,-0.153880,-5.322931,-8.408331
19.954551,-63.110352,-0.854492,2.239202,0.610131,-4.886438,-8.520897
19.971182,-62.721252,-0.976562,-0.286128,-0.201780,-4.905599,-8.808898
19.987184,-64.041138,-0.244141,0.751470,-0.562830,-4.678072,-8.522693
20.003322,-65.261841,1.266479,2.780889,0.063468,-4.327201,-8.840631
20.019374,-66.368103,-0.679016,0.759099,-0.019160,-4.124823,-8.846620
20.035081,-67.817688,-1.426697,0.759099,-0.593965,-4.646936,-8.850811
20.050748,-65.605164,0.640869,2.086614,0.000599,-3.727249,-9.748344
20.066440,-65.208435,1.167297,0.164006,0.017963,-3.533252,-9.294488
20.082386,-65.071106,0.434875,-0.728633,-0.534688,-3.830834,-9.539977
20.098111,-63.598633,-0.610352,2.376531,0.157473,-2.944676,-9.567520
20.114320,-63.034058,-0.480652,-0.179316,0.205972,-2.906356,-9.263951
20.130181,-63.354492,-0.045776,-0.728633,-0.419727,-2.750081,-9.089115
20.145883,-62.644958,0.213623,0.759099,-0.236508,-2.642904,-9.367536
20.161536,-61.042786,0.190735,-0.034358,-0.128732,-2.415377,-9.669908
20.177240,-61.630249,-0.640869,-0.240352,0.017364,-2.195035,-9.748943
20.192902,-62.423706,-0.053406,-0.606562,-0.270637,-1.998644,-9.748943
20.208503,-62.118530,1.091003,2.292607,-0.267643,-2.199826,-9.620211
20.224051,-60.684204,-1.052856,0.019048,0.652643,-1.429827,-9.232218
20.239606,-58.189392,0.053406,-3.200557,-0.952020,-1.792672,-9.510039
20.255142,-54.756165,-0.869751,3.505681,-0.361648,-1.201102,-9.708826
20.270748,-53.359985,-1.411438,1.178716,0.207169,-1.001118,-9.551353
20.286443,-53.588867,-0.114441,-0.103022,-0.290995,-0.922083,-9.532792
20.302247,-53.169250,-0.297546,1.255010,-0.258063,-0.304766,-9.653741
20.318074,-52.856445,-0.129700,0.507329,-0.152084,-0.368234,-9.681882
20.333992,-51.956177,-0.778198,0.240300,-0.265847,-0.156275,-9.628593
20.350068,-52.642822,-0.167847,1.659368,-0.207768,-0.082029,-9.850731
20.366727,-47.920227,-0.595093,-1.056697,0.141306,0.469424,-10.055506
20.382580,-47.164917,1.838684,0.789617,-0.624501,0.395777,-9.737567
20.398430,-46.005249,1.098633,0.743840,0.404758,0.055684,-9.277124
20.414128,-41.290283,0.373840,-2.208735,-0.416135,0.236508,-9.737567
20.429972,-41.923523,1.838684,-0.934626,-0.081431,0.510738,-9.696851
20.445899,-40.176392,-0.450134,-1.506831,-0.192200,0.731678,-9.681284
20.462471,-38.063049,-0.419617,-2.597835,0.344284,1.033451,-9.801035
20.478184,-35.903931,0.198364,-0.331904,-0.182620,1.307082,-9.772893
20.494183,-34.484863,-0.129700,0.698064,-0.005389,1.305286,-9.592668
20.509911,-33.424377,-2.334595,1.277898,-0.199984,1.189726,-9.641766
20.525525,-31.944275,-1.281738,2.582524,0.099393,1.399889,-9.633982
20.541219,-30.883789,-1.213074,2.666448,-0.103585,1.604064,-9.650148
20.557473,-29.899597,-1.815796,2.651189,-0.069456,1.687890,-9.501657
20.573130,-26.855469,-1.457214,1.316045,-0.034728,1.751358,-9.535188
20.588803,-24.017334,-0.549316,0.987981,-0.225731,1.877695,-9.528003
20.604387,-21.995544,-0.152588,0.118230,-0.062271,1.874103,-9.551353
20.620345,-19.836426,0.114441,-0.919368,-0.160466,1.920806,-9.549558
20.636201,-18.409729,1.289368,-1.033809,-0.032333,1.982477,-9.553749
20.651991,-16.990662,1.342773,-1.262690,-0.167053,2.199826,-9.466929
20.667791,-15.525818,1.350403,-1.270320,-0.091610,2.181264,-9.366938
20.683719,-13.603210,0.900269,-1.239802,-0.015568,2.213597,-9.383702
20.699745,-11.436462,0.892639,-0.965144,0.140707,2.273472,-9.510638
20.716018,-18.516541,1.693726,-1.987483,-0.126337,2.368674,-9.064566
20.731639,-6.683350,6.065369,1.270269,0.185015,2.294429,-11.063808
20.747546,15.541077,5.149841,-1.926448,0.195194,2.424957,-11.184158
20.763403,22.003174,0.801086,-5.291011,-0.350272,2.123185,-9.829176
20.779307,19.195557,0.602722,-2.376582,0.158670,2.323169,-9.846539
20.794973,20.545959,0.587463,0.598882,0.425116,2.026186,-10.481220
20.810600,33.187866,0.648499,-1.209285,0.354463,1.961521,-10.113585
20.826208,43.312073,-1.770020,-1.087214,0.083227,1.951941,-9.978865
20.841915,46.836853,-1.014709,1.682256,-0.002994,1.915417,-10.256088
20.857491,49.591064,-3.845215,1.552556,0.336500,1.396895,-10.600372
20.873139,57.174683,-3.097534,2.552007,0.222138,0.889151,-10.311173
20.888739,62.347412,-1.861572,4.489873,0.131726,0.930465,-10.203997
20.904371,65.795898,-3.112793,3.025029,0.156874,0.934656,-10.071671
20.920102,69.305420,-2.815247,3.711675,-0.158670,0.479004,-10.099215
20.935883,71.563721,-2.593994,4.032109,0.199984,0.063468,-10.305785
20.951590,76.408386,-2.624512,2.872441,-0.187410,0.708926,-10.053110
20.968088,80.108643,-3.471375,3.940557,-0.039518,-0.066462,-10.185435
20.984133,84.922791,-3.753662,5.504582,-0.188009,-0.368234,-10.202200
20.999801,86.471558,-2.929688,6.595586,-0.297581,-0.729882,-9.881866
21.015542,86.708069,-3.829956,7.678960,-0.174836,-0.198787,-9.672302
21.031645,88.760376,-2.311707,7.404302,0.072449,-0.947829,-10.099813
21.047443,93.818665,-2.494812,8.129094,0.071851,-1.299298,-10.209385
21.063107,98.625183,-3.433228,8.480046,0.255668,-1.183738,-10.041135
21.079178,100.158691,-3.280640,8.525823,0.005389,-1.731000,-9.280118
21.095232,101.127625,-2.624512,10.089849,-0.146096,-1.811234,-9.577699
21.111135,103.187561,-2.471924,10.593389,-0.138312,-2.106420,-9.776485
21.127144,107.543945,-3.448486,9.929631,-0.113763,-2.761457,-9.813009
21.142852,111.717224,-3.189087,9.944890,-0.135319,-2.703378,-9.531595
21.158507,116.760254,-1.792908,10.333989,-0.217348,-2.832111,-9.523811
21.174063,118.858337,-1.823425,11.257146,-0.326321,-3.990103,-8.819675
21.189613,120.071411,-1.525879,10.753606,-0.068857,-3.854185,-9.066961
21.205179,127.670288,-1.396179,11.875127,-0.191003,-4.710405,-8.064047
21.220905,134.803772,-2.349854,11.821721,-0.153281,-3.610492,-7.793409
21.236676,123.649597,-3.295898,10.593389,-0.146096,-2.589615,-7.112026
21.252447,109.436035,-0.022888,9.700749,-0.133522,-3.017725,-6.425254
21.268197,93.055725,0.450134,11.127446,-0.292791,-3.413502,-6.184555
21.284035,81.703186,0.312805,11.615727,-0.143701,-3.548221,-6.401903
21.299886,68.191528,-1.922607,10.524724,0.067061,-3.388354,-6.133661
21.315701,54.008484,-2.449036,8.716558,-0.201780,-3.988306,-6.918629
21.331526,44.311523,0.915527,7.572148,-0.172441,-4.730164,-8.270019
21.347399,46.264648,-0.190735,6.252263,-0.106578,-6.928792,-8.647833
21.363061,58.845520,-0.244141,5.825017,-0.323328,-7.172485,-8.132903
21.380087,83.961487,-5.073547,3.925298,-0.435295,-7.213799,-7.733534
21.395802,105.903625,-5.561829,0.377629,-0.760419,-6.718628,-8.704715
21.411449,119.506836,-4.158020,-1.987483,-0.620310,-5.540878,-7.085083
21.427146,118.774414,-3.593445,-1.010920,-0.919688,-4.744534,-5.078056
21.442753,110.862732,-3.898621,-1.079585,-0.505349,-5.863606,-5.760637
21.458323,102.104187,-5.798340,-2.330806,-0.735870,-6.181545,-6.116896
21.473958,101.425171,-4.173279,-4.909541,-0.220941,-5.939649,-6.325861
21.489559,112.434387,-6.996155,-5.207088,-0.922083,-7.989186,-5.284028
21.505249,126.243591,-4.547119,-7.114436,-0.407752,-8.008347,-5.333126
21.520977,149.513245,-6.080627,-7.381465,-0.878972,-8.284971,-5.330132
21.536725,160.972595,-8.285522,-8.274104,-0.817300,-7.467671,-5.012792
21.552411,164.321899,-9.956360,-9.983088,-0.167053,-6.495892,-3.350648
21.568168,164.283752,-12.580872,-8.724238,-0.216151,-7.188651,-3.384777
21.583982,167.907715,-9.819031,-8.815791,-0.154479,-7.711364,-2.910563
21.599789,179.077148,-9.651184,-5.985286,0.002395,-7.470066,-2.204631
21.615792,185.470581,-7.545471,-9.014155,0.361049,-8.189770,-1.340628
21.631711,203.300476,-9.307861,-9.182002,0.661025,-8.307724,-1.019097
21.647420,217.353821,-10.429382,-7.816340,-0.506547,-9.057365,-0.057496
21.663288,233.444214,-11.390686,-8.808162,-0.855621,-7.930509,1.750743
21.680050,235.916138,-13.473511,-69.179558,1.962718,-19.617605,6.123450
21.696208,150.566101,-13.862610,-22.510553,0.555645,3.987708,-11.714056
21.711888,32.737732,-33.004761,-1.270320,13.615686,10.693164,11.905027
21.727530,-44.128418,11.932373,-37.715939,-3.193758,-10.727292,11.408660
21.743535,19.493103,-0.244141,25.707220,0.600551,3.125500,-1.670542
21.759302,63.461304,-14.213562,14.522527,2.418970,-17.258511,14.019830
21.774923,85.250854,-12.977600,-13.813045,-0.370629,-6.925798,14.293461
21.790596,112.503052,0.953674,4.863713,-2.566263,-10.700947,5.148677
21.806208,125.572205,1.983643,8.434270,0.860411,-11.867921,5.430092
21.821841,141.029358,8.026123,1.369451,0.762215,-7.283255,7.543697
21.837617,184.074402,8.041382,-8.747127,-1.663940,-10.100396,5.695341
21.853392,176.322937,22.499084,2.765630,0.340093,-14.439572,7.521543
21.869267,186.790466,23.963928,-2.719905,1.037642,-8.411907,1.379515
21.885539,216.728210,28.388977,-7.762935,-0.965193,-12.213402,0.211943
21.901630,215.003967,29.685974,-1.010920,-0.389191,-7.421567,0.534672
21.917600,225.028992,36.720276,0.034307,-0.340093,-7.127578,1.538784
21.933320,187.667847,34.797668,-10.265376,0.683179,-1.464554,3.772739
21.949055,126.205444,31.539917,-7.511165,2.254911,-7.295828,6.095908
21.965023,97.328186,24.047852,-8.663203,-3.380570,-6.358178,9.864470
21.980733,98.754883,39.199829,-5.519893,-1.019081,-3.724854,10.094992
21.996398,108.352661,29.579163,-5.062129,-0.038320,-5.389393,10.638660
22.012414,113.319397,26.206970,-4.146602,-0.719703,-2.948868,11.815214
22.028093,134.124756,30.586243,-2.941157,-1.074166,-5.615123,11.609242
22.043703,146.926880,26.931763,-0.507380,-1.320853,-2.445315,13.531246
22.059311,165.794373,23.643494,-0.423457,-0.666414,-3.666775,12.330742
22.074854,184.143066,19.805908,-1.514460,-1.011896,-2.627337,10.923069
22.090445,184.463501,14.640808,0.820134,-0.980761,-3.739823,10.354851
22.106120,183.273315,12.809753,2.544377,-1.236429,-2.475253,8.947777
22.121840,172.348022,12.649536,3.765080,-1.202899,-2.462679,7.588005
22.137711,157.516479,11.169434,4.367803,-1.310674,-1.535806,7.576628
22.153552,142.005920,11.169434,6.977056,-1.480122,-2.933899,7.341917
22.169488,128.593445,6.347656,6.847356,-2.131567,-2.132166,8.082577
22.185407,121.955872,4.127502,8.068059,-2.439327,0.774190,10.120139
22.201337,124.114990,2.105713,10.471318,-1.848356,2.274670,9.596828
22.217340,128.150940,-2.998352,12.905095,-1.745969,3.030897,10.929057
22.233206,134.452820,-5.836487,16.704535,-2.165098,2.360292,10.545255
22.249082,139.640808,-11.177063,24.929022,-2.206412,2.480641,10.179416
22.264747,138.679504,-12.702942,30.887579,-2.130969,1.346600,8.947178
22.280422,134.391785,-13.114929,33.534977,-1.155597,3.563190,8.764558
22.296088,124.099731,-14.976501,32.993290,-1.431623,3.424279,8.756176
22.311744,110.244751,-13.031006,34.023258,-0.856219,2.764451,8.056829
22.327367,100.028992,-14.755249,37.265751,-0.831072,3.576962,9.041781
22.343232,92.163086,-13.107300,40.988895,-1.213077,4.878655,9.629759
22.358781,93.360901,-14.785767,43.140385,-0.517923,4.264931,10.381795
22.374328,96.717834,-12.443542,42.591068,-0.386197,5.052893,10.526693
22.390051,101.356506,-9.078979,40.340397,-0.303569,4.152964,9.481268
22.405639,101.028442,-7.827759,39.516422,2.692601,7.131769,8.930413
22.421716,102.989197,3.364563,42.240116,2.616559,4.824767,7.818525
22.437659,97.885132,0.282288,31.795477,0.940644,5.043313,7.292220
22.453458,88.447571,-0.694275,16.490911,1.208287,5.904322,7.618541
22.469293,88.981628,-0.061035,5.351995,1.121468,5.361251,6.975479
22.485188,81.733704,0.785828,-3.994014,0.704136,5.966592,7.740687
22.501096,75.141907,2.838135,-9.113338,-1.296903,6.136040,7.707756
22.517320,70.259094,-0.610352,-14.003779,0.566422,5.969586,7.566450
22.533391,73.127747,-1.541138,-12.935664,0.425715,6.473738,6.936560
22.549849,70.884705,-1.060486,-8.144404,-1.592688,6.546786,6.964701
22.565774,71.212769,0.221252,-8.571651,-0.067659,6.554570,6.547369
22.581570,68.710327,-4.280090,-6.961848,-0.245490,6.949748,6.149796
22.597351,63.865662,-3.776550,-1.979854,-1.322051,6.821614,6.220448
22.613861,59.860229,-0.762939,2.147649,-1.015488,6.728807,5.952207
22.629652,54.107666,-0.717163,7.091496,-0.167651,6.921008,5.932447
22.645729,49.644470,1.037598,9.754155,-0.662822,7.474257,5.903708
22.661541,47.988892,2.777100,11.531804,-0.528701,7.484436,5.951608
22.677289,46.150208,3.829956,12.218450,-0.352667,7.910749,5.874967
22.693094,42.358398,5.004883,12.149785,-0.344284,8.480764,5.416920
22.709654,39.512634,3.799438,10.051702,0.367635,8.081993,5.054673
22.725585,34.294128,1.205444,8.052800,0.290995,7.528145,5.014556
22.741296,29.335022,0.846863,4.688237,0.039518,7.986792,5.280404
22.756954,27.885437,-0.885010,0.453923,0.447270,8.146060,5.329501
22.772884,26.176453,-2.281189,-3.719356,0.062271,8.000563,5.184603
22.788632,21.583557,-2.258301,-3.467586,-0.429906,8.144264,5.048685
22.804459,20.744324,-1.167297,-2.452876,-0.398172,8.031698,4.898996
22.820242,15.312195,-0.976562,-0.675227,-0.474214,8.121511,4.810980
22.835999,11.413574,-0.282288,0.102971,-0.351469,8.090376,4.843312
22.851835,7.057190,-0.312805,0.980352,-0.393981,8.108937,4.827745
22.867741,3.051758,-0.007629,2.155278,-0.352667,8.172405,4.895404
22.883635,-0.335693,1.274109,2.437566,-0.182021,8.080197,4.964859
22.899821,-3.067017,1.113892,1.918767,-0.150886,8.176597,5.030723
22.915547,-5.340576,0.793457,1.049016,-0.064067,8.174202,5.018149
22.931304,-8.483887,0.000000,-0.164058,-0.170046,8.080796,4.889417
22.946905,-12.687683,-0.488281,-1.178767,-0.136516,8.026908,4.993600
22.962466,-16.555786,-0.595093,-2.056148,-0.183219,7.976613,5.121733
22.978031,-19.897461,-0.991821,-2.346065,-0.279020,8.017926,5.260644
22.993616,-22.003174,-0.793457,-2.193477,-0.111368,8.016130,5.350458
23.009190,-23.910522,-0.801086,-2.193477,-0.295785,7.913743,5.427697
23.024788,-26.039124,-0.495911,-2.193477,-0.207768,7.812554,5.525294
23.040392,-27.938843,-0.411987,-2.178218,-0.276625,7.779622,5.606126
23.056273,-30.281067,-0.427246,-1.834895,-0.238304,7.705377,5.660014
23.072147,-32.562256,0.267029,-1.529719,-0.402962,7.601193,5.640255
23.088049,-34.790039,1.335144,-0.904109,-0.185015,7.558681,5.887541
23.103821,-38.085938,0.450134,-1.354243,-0.328118,7.420369,5.916281
23.119721,-41.229248,-1.220703,-2.376582,0.086819,7.125782,6.141413
23.135589,-42.663574,0.205994,-2.765681,-0.358055,7.261699,6.295892
23.151802,-42.800903,0.480652,-3.231074,-0.227527,7.431746,6.540184
23.167827,-42.663574,-0.404358,-3.551509,0.147294,7.186256,6.509048
23.183791,-43.869019,0.373840,-2.521541,-0.746647,6.840176,6.249788
23.199729,-47.111511,0.724792,-3.192927,-0.234113,7.065308,6.789266
23.215552,-49.476624,-0.831604,-3.330256,-0.467628,6.544391,6.750347
23.231287,-51.155090,-0.617981,-3.368403,-0.490979,7.010222,7.050921
23.246954,-50.979614,0.297546,-0.118281,0.410147,6.701265,7.335929
23.262703,-49.835205,0.549316,-0.385310,-0.728086,6.397696,7.225758
23.278357,-51.277161,-1.022339,-1.331355,-0.586780,5.987549,7.262881
23.293920,-52.337646,-0.915527,-1.644160,0.072449,6.171367,7.699373
23.309495,-50.613403,0.679016,0.209783,-0.526904,5.877977,7.331139
23.325069,-51.681519,1.335144,0.934575,-0.279619,6.212082,7.867024
23.340669,-52.680969,0.656128,0.087712,-0.128134,5.604944,7.703565
23.356328,-54.039001,-0.137329,-1.224543,-0.386796,5.263654,7.699373
23.372241,-56.838989,0.701904,-2.849605,-0.160466,5.594167,8.102934
23.388089,-55.267334,0.572205,-2.239253,0.044308,5.246889,8.252024
23.404389,-53.886414,0.236511,-1.308467,-0.601150,5.163064,8.239450
23.420218,-53.924561,0.450134,-2.429988,-0.520917,5.003196,8.456799
23.436130,-52.848816,0.030518,-2.559688,-0.417931,4.687652,8.566969
23.452141,-53.428650,0.160217,-2.521541,-0.337099,4.555926,8.504699
23.468052,-53.848267,0.686646,-2.368953,-0.229922,4.436774,8.422071
23.483986,-54.969788,0.373840,-1.766230,-0.358654,4.118236,8.533439
23.499718,-55.587769,-0.457764,-1.300837,-0.443677,4.343368,8.968135
23.515363,-53.291321,0.289917,-0.057246,-0.380808,4.176315,8.978313
23.531011,-53.283691,0.427246,-0.186946,-0.309556,3.887117,8.825032
23.546622,-52.719116,-0.709534,-0.354792,-0.555645,3.852988,9.101058
23.562206,-51.696777,0.061035,-0.232722,-0.525707,3.536246,9.098663
23.577781,-51.506042,-0.007629,-0.156428,-0.340692,3.209326,9.046572
23.593322,-51.589966,1.892090,-0.835444,-0.343087,3.290757,9.290864
23.608931,-50.621033,-0.419617,-1.110103,-0.126936,3.298541,9.243562
23.624513,-49.774170,-0.526428,-0.583674,-0.171843,3.033292,9.289067
23.640115,-49.736023,-0.236511,-1.522090,-0.628094,2.859055,9.501625
23.655949,-48.423767,0.640869,-3.101375,-0.538281,2.759661,9.541143
23.671752,-48.530579,0.953674,-3.009822,-0.207169,2.393223,9.313018
23.687566,-48.110962,-1.907349,-1.689937,-0.183818,2.316583,9.525576
23.703406,-47.386169,0.518799,-2.346065,-0.553250,2.233356,9.502224
23.719310,-46.623230,0.335693,-2.651240,-0.508942,1.960323,9.328586
23.735196,-45.211792,0.427246,-3.360774,-0.484991,1.835783,9.792022
23.751116,-44.250488,0.595093,-2.574946,-0.467628,1.759741,9.656703
23.766878,-43.548584,0.297546,-1.026179,-0.213157,1.678310,9.663888
23.782615,-42.373657,-0.358582,-1.468684,-0.436492,1.407673,9.679456
23.798310,-41.389465,0.366211,-1.499202,-0.560435,1.347797,9.638142
23.814019,-40.924072,0.984192,-1.644160,-0.263452,1.119672,9.690233
23.829641,-39.688110,0.000000,-1.590754,-0.386796,0.959804,9.789626
23.845296,-39.817810,-0.144958,-0.576045,-0.378413,0.914299,9.847107
23.860863,-38.887024,-0.061035,-0.713374,-0.233514,0.808319,9.875847
23.876494,-38.246155,-0.030518,-1.834895,-0.402962,0.790356,9.756096
23.892107,-36.506653,0.198364,-1.697566,-0.520318,0.694556,9.908779
23.907783,-36.247253,0.015259,-1.453425,-0.361648,0.393981,9.874650
23.923503,-35.339355,-0.617981,-0.568416,-0.467628,0.210762,9.954883
23.939296,-33.439636,-0.411987,-0.507380,-0.437091,0.351469,9.772263
23.955041,-32.623291,-0.274658,-1.583125,-0.433499,0.236508,9.869261
23.970776,-32.051086,0.358582,-1.621272,-0.383203,-0.057480,9.860279
23.986597,-31.288147,-0.114441,-1.338984,-0.451461,-0.043110,9.829743
24.002480,-30.158997,-0.137329,-0.972773,-0.410746,-0.135319,9.809385
24.018459,-29.144287,0.106812,-0.629451,-0.434696,-0.170046,9.850101
24.034369,-28.137207,0.442505,-0.530269,-0.410147,-0.384401,9.845909
24.050333,-27.503967,0.274658,-1.468684,-0.408950,-0.459844,9.818966
24.066232,-26.367188,-0.045776,-0.957515,-0.416733,-0.490979,9.812379
24.081959,-26.451111,0.633240,-0.484492,-0.343685,-0.740061,9.866267
24.097591,-25.665283,-0.328064,-1.194026,-0.450264,-0.708926,9.796213
24.113252,-24.185181,0.122070,-1.911189,-0.571811,-0.730481,9.820163
24.128980,-23.223877,0.976562,-1.987483,-0.479004,-0.718506,9.869860
24.144915,-22.872925,0.366211,-2.040889,-0.334105,-0.872386,9.802200
24.160544,-22.079468,0.328064,-1.232173,-0.560435,-1.025068,9.752503
24.176181,-20.690918,0.640869,-0.698115,-0.365240,-1.008902,9.771065
24.191800,-19.851685,0.656128,-1.995112,-0.401765,-1.121468,9.752503
24.207530,-18.905640,0.640869,-1.575496,-0.427511,-1.242416,9.782441
24.223312,-18.432617,0.785828,-0.629451,-0.164059,-1.198707,9.815372
24.239217,-17.440796,-0.358582,-0.347163,-0.381407,-1.238225,9.805793
24.255065,-15.983582,0.053406,-0.705745,-0.447869,-1.259780,9.792621
24.270937,-15.090942,0.923157,-1.148250,-0.375419,-1.359174,9.792022
24.286823,-14.038086,0.183105,-3.391292,-0.359852,-1.401086,9.788429
24.302712,-13.313293,0.541687,-1.117732,-0.478405,-1.499282,9.701011
24.318618,-12.870789,0.427246,-0.827815,-0.390388,-1.519640,9.702209
24.334420,-12.260437,0.457764,-1.781489,-0.443677,-1.523232,9.687839
24.350341,-11.466980,0.900269,-1.804377,-0.313149,-1.545985,9.759688
24.366111,-10.719299,0.724792,-1.094844,-0.343685,-1.604663,9.743523
24.381786,-9.712219,-0.152588,-0.576045,-0.438887,-1.638193,9.768071
24.397421,-8.499146,-0.068665,-0.049617,-0.470023,-1.664539,9.747115
24.413602,-7.469177,-0.144958,0.034307,-0.436492,-1.662144,9.754300
24.429202,-6.126404,-0.755310,0.278447,-0.515528,-1.535806,9.674665
24.444769,-3.921509,-0.747681,0.751470,-0.467628,-1.666934,9.671672
24.460346,-5.455017,-1.045227,0.942205,-0.411345,-1.730402,9.760287
24.475920,-4.867554,-1.174927,0.766729,-0.499362,-1.790876,9.669875
24.491521,-3.898621,-1.068115,0.644658,-0.473016,-1.810036,9.728554
24.507128,-2.792358,-0.808716,0.621770,-0.403561,-1.778302,9.896205
24.522879,-1.708984,-1.197815,0.690435,-0.457449,-1.657952,9.744122
24.538606,-0.991821,-1.007080,0.598882,-0.393382,-1.732198,9.751307
24.554462,0.282288,-0.823975,0.522588,-0.324525,-1.734593,9.689634
24.570350,1.419067,-0.579834,0.240300,-0.321531,-1.788481,9.660295
24.586202,2.151489,-0.389099,0.286077,-0.336500,-1.796863,9.709992
24.602140,2.967834,-0.160217,0.057195,-0.316143,-1.791475,9.696220
24.617991,3.440857,-1.884460,-0.217463,-0.356259,-1.766327,9.716578
24.633917,4.074097,0.389099,-0.515010,-0.390987,-1.722618,9.740528
24.649883,4.844666,0.755310,-0.873591,-0.383203,-1.686094,9.898600
24.665758,5.531311,0.732422,-0.911738,-0.414937,-1.653162,9.766873
24.681593,6.347656,1.121521,-1.224543,-0.434097,-1.625620,9.743523
24.697354,7.057190,1.251221,-1.468684,-0.440085,-1.655557,9.710590
24.713002,7.698059,1.319885,-1.651790,-0.448467,-1.637595,9.659697
24.728678,8.117676,1.495361,-1.773860,-0.446671,-1.623823,9.714782
24.744671,8.186340,1.525879,-2.079036,-0.457449,-1.574127,9.708795
24.760241,8.598328,1.831055,-2.056148,-0.459844,-1.383723,9.758492
24.775829,9.201050,2.029419,-2.124812,-0.431702,-1.509461,9.784238
24.791758,9.941101,3.845215,-2.155330,-0.446072,-1.477727,9.801601
24.807525,10.551453,1.838684,-1.895930,-0.443079,-1.425635,9.823156
24.823393,11.360168,1.647949,-1.659419,-0.465233,-1.393901,9.789028
24.839124,11.970520,1.304626,-1.331355,-0.510139,-1.363964,9.737535
24.854950,12.092590,1.342773,-1.140620,-0.522114,-1.284329,9.729751
24.870838,11.764526,1.075745,-0.881221,-0.559237,-1.247805,9.744122
24.886735,13.656616,0.885010,-0.652339,-0.535886,-1.215472,9.757294
24.902673,11.962891,0.450134,-0.415828,-0.578996,-1.215472,9.744720
24.918772,12.161255,0.190735,-0.118281,-0.570015,-1.188528,9.736936
24.934760,12.489319,0.030518,0.179265,-0.572410,-1.138233,9.745318
24.950676,12.657166,-0.434875,0.476812,-0.538281,-1.110092,9.758492
24.966371,12.969971,-0.747681,1.010869,-0.577798,-1.044827,9.790225
24.982058,13.160706,-1.319885,1.461003,-0.586780,-0.944835,9.858483
24.997680,13.671875,-1.380920,1.644109,-0.574206,-0.914897,9.878841
25.013404,14.427185,-1.502991,1.995061,-0.549058,-0.944236,9.840521
25.029047,14.762878,-1.914978,2.315495,-0.479603,-0.932860,9.627963
25.044596,14.991760,-2.235413,2.696965,-0.517923,-0.884960,9.730350
25.060228,14.694214,-2.067566,2.689336,-0.502954,-0.706531,9.826151
25.075799,14.411926,-1.754761,2.284978,-0.607137,-0.621508,9.842916
25.091460,13.992310,-1.800537,2.292607,-0.395178,-0.661624,9.848904
25.107261,14.053345,-1.655579,2.399419,-0.391586,-0.653840,9.831539
25.123002,14.297485,-1.640320,2.376531,-0.418530,-0.610730,9.800404
25.138790,14.747620,-1.319885,1.880620,-0.412542,-0.540077,9.785435
25.154631,14.747620,-0.923157,1.720403,-0.352068,-0.403561,9.837527
25.170667,14.541626,-1.167297,1.598333,-0.351469,-0.341889,9.839922
25.186570,14.488220,-0.892639,1.255010,-0.446072,-0.380209,9.800404
25.202426,14.617920,-0.442505,0.713323,-0.429906,-0.392184,9.777053
25.218266,14.678955,0.152588,-0.087764,-0.429906,-0.288001,9.835731
25.234196,14.572144,0.076294,-0.186946,-0.382006,-0.186213,9.848904
25.249917,14.228821,0.198364,-0.247981,-0.385598,-0.135917,9.842317
25.265612,13.931274,0.228882,-0.659968,-0.438289,-0.113165,9.783639
25.281406,13.717651,0.762939,-1.400020,-0.452659,-0.091610,9.808786
25.297097,15.586853,1.007080,-1.560237,-0.408351,-0.059277,9.792022
25.312808,13.595581,0.740051,-1.232173,-0.422122,-0.060474,9.795614
25.328491,13.374329,0.724792,-0.797297,-0.474813,0.003593,9.818367
25.344295,13.305664,1.075745,-1.155879,-0.505948,0.076042,9.791423
25.359851,13.031006,1.121521,-1.491572,-0.458047,0.132924,9.829743
25.375475,12.992859,0.900269,-1.232173,-0.487386,0.188009,9.860279
25.391173,13.069153,0.473022,-0.354792,-0.494572,0.189805,9.837527
25.406984,12.962341,-0.022888,0.141118,-0.545466,0.216151,9.796213
25.422962,12.992859,-0.061035,0.171636,-0.586181,0.225731,9.751904
25.438806,12.657166,-0.122070,0.194524,-0.527503,0.283810,9.734541
25.454719,12.237549,-0.526428,0.720952,-0.490979,0.332908,9.775855
25.470597,11.650085,-0.694275,1.377080,-0.518522,0.410147,9.819564
25.486491,11.497498,-1.152039,1.659368,-0.517923,0.446072,9.860878
25.502152,11.627197,-1.113892,1.674626,-0.565225,0.458047,9.808786
25.517872,11.749268,-1.327515,1.872991,-0.523911,0.474214,9.794416
25.533523,11.589050,-1.541138,2.292607,-0.447869,0.500559,9.882434
25.549157,11.299133,-1.670837,2.635930,-0.465831,0.548459,9.730948
25.564898,11.039734,-1.846313,2.620671,-0.477806,0.554447,9.739930
25.580685,10.917664,-1.518250,2.429936,-0.452659,0.619113,9.771664
25.596299,10.742188,-1.457214,2.300237,-0.431104,0.744851,9.883032
25.611865,10.841370,-1.327515,2.140019,-0.455054,0.781974,9.893810
25.627448,10.932922,-1.312256,1.995061,-0.401765,0.728086,9.849502
25.643065,11.184692,-1.098633,1.506780,-0.426313,0.751437,9.914167
25.658619,10.902405,-0.785828,1.148198,-0.396376,0.801733,9.689634
25.674314,10.101318,-0.572205,0.728582,-0.318538,0.850232,9.648919
25.690084,9.078979,-0.389099,0.492070,-0.342488,0.862207,9.653111
25.705841,7.987976,-0.236511,-1.567866,-0.341889,0.917292,9.720171
25.721588,7.568359,-0.038147,0.301335,-0.360450,0.952020,9.770466
25.737453,7.431030,-0.144958,-0.049617,-0.413740,0.989143,9.821959
25.753251,7.743835,0.244141,-0.377681,-0.416135,1.002316,9.812379
25.769010,7.804871,0.221252,-0.591304,-0.450862,1.003513,9.733343
25.784911,7.591248,0.373840,-0.850703,-0.462239,1.012495,9.695024
25.800627,6.973267,0.549316,-1.132991,-0.461041,1.066981,9.659098
25.816299,6.172180,0.495911,-1.537349,-0.462838,1.075963,9.677659
25.831966,5.279541,0.694275,-1.659419,-0.476010,1.077160,9.698017
25.847743,4.638672,0.679016,-1.583125,-0.458646,1.090333,9.736338
25.863349,4.486084,0.442505,-1.293208,-0.462838,1.106499,9.764479
25.878974,4.493713,0.114441,-0.835444,-0.468226,1.122665,9.766873
25.894607,4.234314,0.152588,-0.354792,-0.596959,1.152004,9.739930
25.910475,3.822327,-0.213623,0.049565,-0.486189,1.130449,9.683048
25.926572,3.265381,-0.442505,0.537847,-0.508942,1.162183,9.674665
25.942525,2.243042,-0.495911,0.965093,-0.510738,1.146616,9.656703
25.958271,1.640320,-0.923157,1.155828,-0.525707,1.150208,9.666882
25.974088,1.007080,-0.846863,1.247380,-0.542472,1.171763,9.708196
25.989972,0.579834,-1.098633,1.201604,-0.523911,1.183140,9.740528
26.005851,0.236511,-1.060486,1.262639,-0.470621,1.209485,9.747714
26.021758,0.244141,-1.182556,1.308416,-0.455054,1.211880,9.757893
26.037567,-0.022888,-1.228333,1.277898,-0.411943,1.175356,9.723165
26.053317,-0.419617,-1.014709,1.331304,-0.386796,1.150807,9.696819
26.069112,-0.953674,-0.953674,1.224492,-0.376617,1.150208,9.690233
26.084734,-1.464844,-0.839233,1.110051,-0.364043,1.146017,9.685443
26.100325,-1.808167,-0.778198,0.972722,-0.380209,1.126258,9.706400
26.115916,-2.311707,-0.534058,0.667546,-0.398771,1.115480,9.733343
26.131631,-2.471924,-0.457764,0.301335,-0.436492,1.110690,9.612994
26.147259,-2.403259,-0.320435,-0.011470,-0.421523,1.121468,9.910575
26.162827,-2.357483,-0.030518,-0.392939,-0.443677,1.089135,9.738133
26.178434,-2.510071,-0.045776,-0.759150,-0.425715,1.060395,9.725559
26.194032,-2.723694,0.190735,-1.049067,-0.420326,1.035846,9.723165
26.209620,-2.914429,0.053406,-1.155879,-0.417332,1.016686,9.714184
26.225396,-3.105164,0.236511,-1.064326,-0.408950,1.031655,9.725559
26.241240,-3.280640,0.328064,-1.033809,-0.404758,1.031056,9.757893
26.257134,-3.334045,0.061035,-0.728633,-0.421523,1.028062,9.732745
26.272944,-3.425598,-0.038147,-0.446345,-0.455652,0.998124,9.725559
26.288827,-3.517151,-0.183105,-0.171687,-0.456850,0.975372,9.730350
26.304724,-3.517151,-0.305176,0.133489,-0.492177,0.950823,9.727955
26.320620,-3.837585,-0.442505,0.286077,-0.485590,0.945434,9.712387
26.336449,-3.890991,-0.534058,0.415776,-0.505349,0.946631,9.723763
26.352319,-3.906250,-0.602722,0.431035,-0.507744,0.938848,9.752503
26.368027,-4.020691,-0.701904,0.476812,-0.472418,0.919688,9.750109
26.383742,-4.196167,-0.816345,0.453923,-0.605940,0.889151,9.714782
26.399393,-4.219055,-0.732422,0.385259,-0.426313,0.851429,9.744122
26.415030,-4.348755,-0.839233,0.408147,-0.385598,0.849034,9.769269
26.430717,-4.203796,-0.839233,0.713323,-0.383203,0.854423,9.768071
26.446296,-4.005432,-0.709534,0.705693,-0.410147,0.831072,9.784238
26.461859,-3.990173,-0.671387,0.621770,-0.382604,0.832868,9.780645
26.477405,-2.105713,-0.671387,0.629399,-0.381407,0.802332,9.779448
26.493005,-4.066467,-0.610352,0.575994,-0.392783,0.778381,9.760886
26.508710,-4.043579,-0.480652,0.400518,-0.407752,0.777184,9.729751
26.524521,-4.104614,-0.297546,0.087712,-0.409548,0.761616,9.744122
26.540289,-4.379272,-0.122070,-0.324275,-0.450862,0.744851,9.911773
26.556118,-4.325867,-0.030518,-0.614192,-0.416135,0.740061,9.780645
26.572084,-4.364014,-0.068665,-0.637080,-0.414937,0.723895,9.775256
26.587889,-4.333496,0.022888,-0.850703,-0.417931,0.712518,9.817169
26.603822,-4.066467,0.175476,-0.911738,-0.392783,0.692161,9.795614
26.619643,-3.730774,0.076294,-0.888850,-0.390987,0.692161,9.780046
26.635312,-3.761292,0.160217,-0.843074,-0.370629,0.643661,9.769269
26.650917,-3.822327,0.167847,-0.644709,-0.414937,0.602347,9.756096
26.666571,-3.784180,0.167847,-0.583674,-0.440684,0.550855,9.732745
26.682206,-3.707886,0.068665,-0.415828,-0.458047,0.510139,9.738732
26.697818,-3.562927,0.038147,-0.286128,-0.456850,0.523911,9.777652
26.713388,-3.150940,-0.083923,-0.141169,-0.474214,0.540676,9.837527
26.728949,-2.418518,-0.259399,-0.049617,-0.474214,0.550855,9.865668
26.744458,-1.396179,-0.396729,0.102971,-0.502954,0.530497,9.858483
26.760036,-0.663757,-0.404358,0.225042,-0.489183,0.496967,9.833336
26.775715,0.152588,-0.511169,0.278447,-0.447270,0.480201,9.774657
26.791570,0.480652,-0.633240,0.453923,-0.438289,0.463436,9.731547
26.807370,0.640869,-0.564575,0.568364,-0.404160,0.481998,9.702209
26.823138,0.389099,-0.564575,0.575994,-0.390388,0.508942,9.744122
26.839115,0.442505,-0.488281,0.713323,-0.405357,0.524509,9.778849
26.855018,0.839233,-0.587463,0.804875,-0.401166,0.535287,9.857884
26.870929,1.884460,-0.518799,0.606511,-0.418530,0.528102,9.850101
26.886940,2.593994,-0.411987,0.339482,-0.405357,0.545466,9.853693
26.902880,3.273010,-0.221252,0.164006,-0.389789,0.581391,9.787231
26.918573,3.540039,0.061035,-0.347163,-0.402962,0.619113,9.769868
26.934880,3.585815,0.129700,-0.919368,-0.423320,0.626896,9.765078
26.950705,3.486633,0.617981,-1.209285,-0.398771,0.613724,9.777652
26.966363,3.448486,0.602722,-1.621272,-0.411345,0.641266,9.744720
26.982548,3.128052,0.625610,0.194524,-0.418530,0.664019,9.734541
26.998368,2.853394,0.808716,-1.728083,-0.446671,0.663420,9.745917
27.013988,2.677917,0.839233,-1.628901,-0.425715,0.695154,9.784837
27.029732,2.433777,0.648499,-1.384761,-0.438289,0.727487,9.763880
27.045594,2.006531,0.633240,-1.033809,-0.474813,0.733475,9.769269
27.061341,2.075195,0.434875,-0.713374,-0.488584,0.737666,9.784837
27.076973,1.838684,0.183105,-0.568416,-0.523911,0.734073,9.775855
27.092823,1.686096,-0.045776,-0.377681,-0.531694,0.716710,9.740528
27.108650,1.464844,-0.213623,-0.019099,-0.516725,0.720302,9.737535
27.124440,1.068115,-0.373840,0.316594,-0.513732,0.732876,9.751307
27.140175,0.816345,-0.595093,0.446294,-0.516725,0.732277,9.761485
27.156003,0.411987,-0.679016,0.652288,-0.499362,0.749641,9.766275
27.171884,0.312805,-0.907898,0.957463,-0.473016,0.746049,9.772861
27.187783,0.106812,-0.946045,1.270269,-0.458047,0.730481,9.756096
27.203600,-0.030518,-1.159668,1.361821,-0.439486,0.745450,9.777053
27.219482,-0.167847,-1.228333,1.537297,-0.429906,0.730481,9.759090
27.235376,-0.457764,-1.083374,1.415227,-0.414338,0.751437,9.747714
27.251004,-0.694275,-1.029968,1.308416,-0.403561,0.722098,9.752503
27.266639,-1.045227,-0.831604,1.026128,-0.399968,0.740660,9.765676
27.282246,-1.319885,-0.709534,0.698064,-0.413740,0.719703,9.769868
27.297826,-1.251221,-0.617981,0.331853,-0.426313,0.724493,9.808187
27.313348,-1.335144,-0.465393,0.049565,-0.417332,0.712518,9.804595
27.328971,-1.113892,-0.236511,-0.339534,-0.417332,0.702938,9.803398
27.344577,-1.251221,-0.228882,-0.537898,-0.393382,0.702339,9.780645
27.360329,-1.243591,-0.183105,-0.560786,-0.413740,0.661624,9.750109
27.376172,-1.731873,-1.922607,-0.637080,-0.422721,0.642464,9.738133
27.392020,-1.686096,0.053406,-0.576045,-0.430505,0.616718,9.734541
27.407807,-1.937866,-0.038147,-0.469233,-0.429906,0.586181,9.792022
27.423633,-1.792908,0.038147,-0.354792,-0.421523,0.581391,9.790824
27.440178,-1.556396,-0.160217,-0.103022,-0.444276,0.564626,9.814775
27.456193,-1.091003,-0.167847,0.003789,-0.486189,0.570015,9.835132
27.472100,-0.503540,-0.282288,0.072454,-0.468825,0.544268,9.818367
27.487891,0.244141,-0.289917,0.263188,-0.467628,0.578996,9.824354
27.503941,0.694275,-0.480652,0.263188,-0.495769,0.546064,9.782441
27.519809,1.159668,-0.526428,0.370000,-0.468226,0.537083,9.759090
27.535442,1.365662,-0.541687,0.186895,-0.443677,0.567021,9.747714
27.551146,1.571655,-0.411987,0.125859,-0.416135,0.584385,9.908180
27.566836,1.457214,-0.274658,0.095342,-0.406555,0.629890,9.797410
27.582669,1.617432,-0.297546,0.034307,-0.382006,0.639470,9.803997
27.598267,1.617432,-0.160217,-0.148799,-0.386197,0.648452,9.801601
27.613861,1.853943,0.091553,-0.263240,-0.390388,0.677192,9.775855
27.629516,1.930237,-0.022888,-0.354792,-0.409548,0.673001,9.757893
27.645476,1.777649,0.106812,-0.499751,-0.427511,0.675395,9.752503
27.661357,1.327515,0.167847,-0.759150,-0.469424,0.684377,9.748911
27.676986,0.968933,0.328064,-0.942256,-0.463436,0.686173,9.745318
27.692854,0.656128,0.350952,-1.010920,-0.475411,0.700543,9.747714
27.708647,0.549316,0.144958,-0.926997,-0.483195,0.690364,9.771065
27.724491,0.450134,0.106812,-0.766780,-0.510738,0.690364,9.789028
27.740241,0.411987,0.038147,-0.614192,-0.480800,0.678389,9.783040
27.756093,0.259399,-0.122070,-0.316646,-0.480201,0.678988,9.759688
27.771843,0.244141,-0.328064,0.202153,-0.463436,0.650248,9.750109
27.787894,-0.061035,-0.595093,0.499700,-0.450264,0.692161,9.747115
27.803696,-0.442505,-0.762939,0.896428,-0.464634,0.679587,9.747714
27.819564,-0.503540,-0.885010,1.087163,-0.490380,0.670605,9.772861
27.835235,-0.740051,-0.862122,1.186345,-0.498164,0.679587,9.762084
27.850934,-0.816345,-0.984192,1.178716,-0.484991,0.672402,9.767472
27.866612,-0.823975,-1.075745,1.125310,-0.458646,0.652643,9.781244
27.882215,-0.946045,-0.831604,0.827764,-0.437690,0.490979,9.787830
27.897792,-1.014709,-0.808716,0.583623,-0.413740,0.625699,9.770466
27.913371,-0.976562,-0.694275,0.453923,-0.399968,0.465831,9.774059
27.928913,-0.762939,-0.564575,0.324224,-0.389789,0.604742,9.798009
27.944585,-0.556946,-0.587463,0.377629,-0.381407,0.601150,9.784837
27.960279,-0.396729,-0.396729,0.240300,-0.379611,0.575403,9.832138
27.976108,-0.144958,-0.450134,0.164006,-0.383802,0.567620,9.807590
27.991955,0.267029,-0.267029,0.064824,-0.416733,0.589774,9.788429
28.007786,0.488281,-0.251770,-0.049617,-0.436492,0.570015,9.789028
28.023626,0.762939,-1.861572,-0.240352,-0.434696,0.599952,9.771664
28.039555,0.915527,0.007629,-0.377681,-0.438887,0.597557,9.758492
28.055519,1.083374,0.022888,-0.629451,-0.456251,0.617915,9.786034
28.071626,1.335144,0.068665,-0.545527,-0.409548,0.606539,9.790225
28.087364,1.564026,0.221252,-0.690486,-0.431104,0.762814,9.792022
28.103186,1.579285,0.053406,-0.446345,-0.434097,0.635279,9.772861
28.118816,1.617432,0.022888,-0.255610,-0.413740,0.643063,9.765078
28.134439,1.312256,-0.068665,-0.240352,-0.432301,0.656235,9.771065
28.150095,1.312256,-0.144958,-0.148799,-0.440085,0.678389,9.764479
28.165714,1.068115,-0.205994,-0.034358,-0.463436,0.678988,9.742924
