Timestamp,Gyro_X_dps,Gyro_Y_dps,Gyro_Z_dps,Accel_X_mps2,Accel_Y_mps2,Accel_Z_mps2
0.005539,0.328064,-0.289917,0.049565,0.023351,8.788525,3.818244
0.021249,0.282288,-0.312805,0.064824,0.003593,8.804091,3.808065
0.036830,0.335693,-0.137329,0.072454,-0.037123,8.756790,3.818244
0.052432,0.427246,-0.236511,-0.011470,0.010179,8.781938,3.844589
0.068045,0.221252,-0.213623,-0.026729,0.007784,8.780142,3.815250
0.083635,0.282288,-0.236511,0.110601,-0.002395,8.756790,3.802676
0.099238,0.419617,-0.282288,-0.003840,-0.011975,8.769364,3.826028
0.114799,0.419617,-0.259399,0.019048,0.006586,8.806487,3.815250
0.130380,0.320435,-0.259399,0.034307,0.027543,8.804091,3.829620
0.145941,0.267029,-0.167847,-0.019099,0.031734,8.818462,3.816448
0.161508,0.221252,-0.129700,0.026677,0.038320,8.779543,3.817645
0.177091,0.335693,-0.137329,0.003789,-0.008981,8.818462,3.821238
0.192656,0.259399,-0.228882,-0.011470,0.052092,8.754993,3.801479
0.208228,0.373840,-0.083923,-0.034358,0.028740,8.798104,3.817645
0.223806,0.267029,-0.267029,0.133489,-0.036524,8.760383,3.831417
0.239386,0.335693,-0.236511,0.148748,0.009580,8.781339,3.799683
0.254964,0.251770,-0.160217,-0.049617,0.040715,8.768765,3.833812
0.270520,0.289917,-0.221252,0.087712,-0.028141,8.773556,3.796689
0.286091,0.274658,-0.236511,0.011418,0.028740,8.792715,3.803874
0.301672,0.190735,-0.236511,-0.011470,0.012574,8.800499,3.816448
0.317252,0.259399,-0.106812,0.072454,0.029339,8.807086,3.811658
0.332836,0.282288,-0.297546,0.019048,-0.022154,8.789721,3.823633
0.348394,0.312805,-0.137329,-0.034358,0.045505,8.799900,3.811059
0.363971,0.350952,-0.320435,-0.034358,-0.014370,8.769364,3.848182
0.379538,0.244141,-0.213623,0.041936,0.009580,8.776549,3.802676
0.395109,0.442505,-0.244141,0.095342,0.004790,8.780142,3.842194
0.410689,0.251770,-0.221252,0.148748,0.025148,8.782537,3.807467
0.426271,0.228882,-0.350952,-0.064875,0.038919,8.804690,3.791300
0.441834,0.259399,-0.259399,0.148748,-0.001198,8.778345,3.842194
0.457414,0.442505,-0.152588,0.186895,0.004790,8.760982,3.814651
0.472986,0.373840,-0.259399,-0.049617,0.041314,8.828042,3.818843
0.488552,0.267029,-0.190735,0.026677,-0.015568,8.787926,3.826627
0.504130,0.396729,-0.328064,-0.034358,-0.014370,8.789123,3.800880
0.519706,0.343323,-0.396729,-0.041987,-0.007784,8.808283,3.827225
0.535294,0.381470,-0.221252,-0.026729,0.030536,8.780142,3.809861
0.550871,0.366211,-0.328064,0.019048,0.027543,8.820857,3.808664
0.566446,0.289917,-0.274658,0.041936,0.004790,8.796308,3.833213
0.582020,0.335693,-0.099182,0.019048,0.019160,8.786728,3.820040
0.597616,0.205994,-0.381470,0.034307,-0.025746,8.811276,3.935600
0.613214,0.373840,-0.259399,-0.041987,0.023950,8.820258,3.805670
0.628787,0.267029,-0.366211,-0.026729,0.004191,8.798703,3.848781
0.644382,0.442505,-0.259399,-0.072505,0.038919,8.793913,3.839200
0.659984,0.404358,-0.282288,0.095342,-0.129930,8.816067,3.838003
0.675574,0.289917,-0.320435,-0.049617,0.000599,8.792117,3.832015
0.691169,0.198364,-0.175476,0.049565,0.138911,8.798104,3.814053
0.706769,0.366211,-0.251770,0.080083,-0.017364,8.757389,3.833812
0.722358,0.152588,-0.320435,-0.133540,-0.010179,8.790320,3.819442
0.737951,0.190735,-0.350952,-0.019099,-0.028740,8.775950,3.815250
0.753552,0.411987,-0.038147,-0.118281,0.049697,8.804091,3.822435
0.769154,0.312805,-0.411987,-0.064875,-0.025746,8.806487,3.817645
0.784768,0.228882,-0.228882,0.072454,-0.146096,8.795710,3.829022
0.800371,0.427246,-0.267029,-0.064875,0.041314,8.821456,3.830818
0.815962,0.419617,-0.160217,-0.064875,0.017963,8.804690,3.810460
0.831555,0.495911,-0.175476,-0.057246,0.001796,8.793314,3.813454
0.847152,0.427246,-0.198364,-0.148799,0.048499,8.791518,3.811658
0.862637,0.419617,-0.114441,0.064824,0.009580,8.759185,3.781720
0.878099,0.526428,-0.091553,0.034307,0.029938,8.796906,3.790701
0.893577,0.373840,-0.297546,0.087712,0.041314,8.808882,3.788905
0.909146,0.320435,-0.267029,0.095342,-0.015568,8.787926,3.820040
0.924746,0.213623,-0.305176,0.034307,0.021555,8.807684,3.807467
0.940320,0.389099,-0.396729,0.026677,-0.005988,8.792117,3.830818
0.955901,0.587463,-0.190735,0.141118,-0.005988,8.791518,3.809263
0.971499,0.183105,-0.190735,-0.019099,0.064666,8.807684,3.776331
0.987088,0.495911,-0.122070,0.011418,0.043110,8.816067,3.816448
1.002665,0.335693,-0.328064,0.072454,-0.025148,8.738828,3.840997
1.018242,0.404358,-0.205994,0.041936,0.046104,8.825048,3.803874
1.033817,0.305176,-0.213623,0.102971,-0.005389,8.788525,3.823034
1.049369,0.244141,-0.366211,0.072454,-0.025148,8.781339,3.824830
1.064933,0.213623,-0.259399,0.026677,0.067659,8.784931,3.813454
1.080488,0.267029,-0.144958,0.011418,0.004191,8.812474,3.801479
1.096072,0.427246,-0.274658,0.095342,-0.007185,8.783135,3.832614
1.111648,0.366211,-0.129700,0.087712,0.040117,8.829240,3.799683
1.127229,0.267029,-0.267029,0.095342,0.012574,8.775352,3.822435
1.142807,0.411987,-0.091553,0.095342,0.007784,8.753198,3.820040
1.158383,0.297546,-0.244141,0.118230,0.031135,8.796906,3.787109
1.173957,0.129700,-0.282288,0.110601,0.023950,8.763376,3.821238
1.189531,0.373840,-0.137329,-0.049617,0.004790,8.777148,3.826028
1.205090,0.267029,-0.106812,0.011418,0.026944,8.789721,3.816448
1.220662,0.480652,-0.343323,0.064824,-0.002994,8.788525,3.823633
1.236236,0.213623,-0.129700,0.003789,-0.002395,8.798104,3.849379
1.251810,0.274658,-0.221252,0.011418,0.033530,8.782537,3.830818
1.267385,0.335693,-0.320435,0.064824,-0.001796,8.786129,3.814651
1.282936,0.442505,-0.152588,0.064824,0.026944,8.786129,3.827225
1.298515,0.091553,-0.228882,0.095342,0.013173,8.800499,3.815250
1.314098,0.396729,-0.305176,-0.003840,-0.023351,8.784333,3.844589
1.329693,0.274658,-0.297546,-0.026729,0.003593,8.802895,3.834410
1.345292,0.205994,-0.175476,-0.156428,0.044907,8.763376,3.871533
1.360894,0.343323,-0.205994,0.034307,-0.021555,8.783135,3.824830
1.376492,0.335693,-0.144958,0.202153,0.044308,8.798104,3.823034
1.392085,0.267029,-0.160217,0.102971,0.030536,8.831635,3.807467
1.407691,0.274658,-0.320435,0.179265,0.008981,8.783135,3.806269
1.423299,0.404358,-0.358582,-0.049617,0.034129,8.774753,3.787708
1.438905,0.343323,-0.259399,0.026677,0.007185,8.781339,3.808065
1.454499,0.274658,-0.289917,0.003789,0.028141,8.749006,3.838003
1.470093,0.274658,-0.183105,0.057195,-0.021555,8.801098,3.796689
1.485701,0.396729,-0.389099,0.095342,0.017364,8.772358,3.827225
1.501299,0.373840,-0.183105,0.095342,0.011376,8.772957,3.846385
1.516882,0.411987,-0.289917,-0.011470,-0.024549,8.768765,3.786510
1.532473,0.328064,-0.350952,-0.057246,-0.126936,8.790919,3.839799
1.548069,0.411987,0.053406,-0.118281,0.006586,8.763376,3.827824
1.563671,0.381470,-0.259399,-0.019099,0.016765,8.798703,3.839799
1.579263,0.495911,-0.335693,-0.003840,0.054487,8.828042,3.763159
1.594870,0.404358,-0.465393,-0.217463,-0.004790,8.753198,3.790701
1.610458,0.328064,-0.411987,-0.049617,0.038919,8.798104,3.858361
1.626061,-0.213623,0.022888,-0.080134,0.066462,8.765772,3.836805
1.641667,0.137329,-0.320435,-0.011470,0.009580,8.801098,3.833213
1.657263,0.434875,0.022888,0.041936,-0.111368,8.914862,3.794294
1.672867,0.473022,-0.251770,0.202153,0.009580,8.669372,3.940390
1.688471,0.312805,0.503540,0.286077,-0.271835,8.916657,3.809861
1.704073,0.885010,0.747681,0.942205,-0.175435,8.651409,3.811059
1.719674,0.076294,0.495911,0.774358,0.016765,8.841214,3.797886
1.735272,0.762939,-0.205994,0.720952,0.140109,8.819060,3.819442
1.750869,0.907898,0.076294,0.476812,0.209564,8.732840,3.809263
1.766470,0.473022,0.160217,0.774358,0.291594,8.829240,3.801479
1.782081,0.953674,0.892639,0.766729,0.056283,8.750204,3.839200
1.797688,0.190735,0.549316,0.362371,0.022753,8.679551,3.729030
1.813293,-0.244141,-0.602722,-0.553157,0.034728,8.799302,3.802078
1.828896,-0.404358,-1.441956,-1.026179,-0.050295,8.752000,3.955359
1.844554,0.411987,-0.961304,-0.759150,-0.137115,8.666977,3.922427
1.860154,0.061035,0.938416,-0.644709,0.046703,8.714877,3.769146
1.875758,1.136780,0.671387,-0.583674,0.152084,9.077124,3.579940
1.891372,2.136230,0.122070,0.087712,0.129930,8.825647,3.621254
1.906979,3.044128,3.372192,1.308416,-0.125140,8.869356,3.475157
1.922570,3.524780,7.949829,1.857732,0.290995,8.774154,3.514675
1.938170,3.562927,11.054993,0.949834,0.699346,8.777148,3.480546
1.953779,4.707336,15.228271,0.171636,0.323926,8.800499,3.581736
1.969397,4.615784,17.303467,-0.942256,-0.131127,8.822653,3.292537
1.985009,1.487732,19.523621,-1.598384,0.076641,9.166937,3.729628
2.000618,-0.724792,16.525269,-2.674129,-0.110171,9.075927,3.770344
2.016214,0.419617,10.147095,-2.826716,-0.107177,8.964558,3.803874
2.031811,1.869202,6.187439,-0.545527,-0.013173,8.779543,4.199052
2.047402,5.409241,3.578186,-0.011470,-0.186213,8.699908,4.184682
2.063009,7.850647,-3.669739,-1.735713,-0.161664,8.663983,3.952964
2.078611,8.666992,-4.829407,-1.758601,-0.083826,8.234077,3.693703
2.094222,6.973267,-5.844116,-1.255061,-0.465831,8.699908,3.873928
2.109820,5.035400,-5.249023,-0.804927,-0.419128,8.855585,3.625445
2.125417,3.677368,-5.058289,-0.949885,-0.295186,8.926837,3.530243
2.141003,1.602173,-3.784180,-0.705745,-0.176034,8.905880,3.464380
2.156607,0.556946,-3.028870,-0.629451,-0.202379,8.839418,3.660771
2.172212,1.144409,-2.853394,-0.675227,0.023351,8.826844,3.806868
2.187806,2.464294,-2.655029,-0.789668,0.005389,8.943602,3.751782
2.203412,3.936768,-2.296448,-0.659968,-0.047900,8.868158,3.695499
2.219015,4.768372,-1.892090,-0.247981,0.082029,8.901090,3.688314
2.234618,6.225586,-0.251770,-0.301387,0.120948,8.977731,3.433843
2.250203,7.324219,1.945496,-0.316646,0.131726,9.019644,3.500904
2.265792,7.804871,0.297546,-1.194026,0.080233,8.925040,3.504497
2.281391,8.049011,0.495911,-1.468684,-0.009580,8.842412,3.555391
2.296991,7.263184,0.709534,-1.972224,-0.022753,8.774154,3.671549
2.312591,6.263733,1.930237,-2.788569,-0.088017,9.254954,3.447615
2.328188,7.232666,1.464844,-4.230525,-0.094603,8.818462,3.712264
2.343786,8.270264,-0.236511,-4.283931,-0.130529,9.051976,3.417078
2.359388,7.888794,0.045776,-3.864314,-0.165256,8.637039,3.353011
2.374973,8.300781,-0.907898,-3.536250,-0.137714,9.096284,2.884187
2.390569,9.017944,-0.885010,-3.925349,-0.012574,9.189091,3.151830
2.406150,9.140015,-1.663208,-4.650142,-0.053289,9.260942,3.272778
2.421735,11.550903,-2.616882,-6.168391,-0.135319,8.904682,3.230865
2.437367,12.474060,-3.044128,-5.825068,-0.078437,8.975336,3.339240
2.452979,10.635376,-3.768921,-4.566218,-0.232317,8.996891,3.409893
2.468556,7.865906,-3.669739,-4.459407,-0.160466,8.801697,3.367980
2.484143,7.171631,-4.409790,-4.497554,-0.413141,8.948392,3.448812
2.499726,7.591248,-4.173279,-4.863765,-0.417931,9.028027,3.463182
2.515308,7.858276,-2.655029,-3.231074,-0.649050,9.329799,3.373369
2.530911,6.996155,-0.755310,-1.873042,-0.601150,9.041798,3.429053
2.546498,6.278992,0.068665,-1.438166,-0.546064,9.001082,3.444621
2.562093,6.446838,0.373840,-2.468135,-0.510738,8.987310,3.456596
2.577685,6.843567,0.701904,-3.063228,-0.542472,9.204659,3.392529
2.593278,7.453918,0.602722,-2.712276,-0.468226,9.269923,3.312296
2.608891,9.613037,-0.198364,-2.361323,-0.364043,9.187295,3.381752
2.624477,14.060974,-1.815796,-2.559688,-0.343087,9.097482,3.320679
2.640094,16.555786,-2.746582,-2.262141,-0.356259,9.101074,3.306907
2.655692,16.250610,-3.128052,-0.812556,-0.433499,9.213640,3.230865
2.671315,14.472961,-3.578186,0.072454,-0.411943,9.207653,3.178774
2.686921,14.709473,-4.379272,-0.118281,-0.408950,9.297466,3.082374
2.702512,16.944885,-5.249023,-1.041438,-0.468226,8.963361,3.162009
2.718050,18.951416,-5.722046,-0.232722,-0.505349,9.063951,3.026690
2.733637,19.371033,-5.020142,1.369451,-0.546663,9.195079,2.999746
2.749208,19.050598,-5.020142,2.674077,-0.396376,9.245374,2.903347
2.764838,19.042969,-6.050110,2.155278,-0.193997,9.269923,2.697375
2.780443,19.134521,-8.049011,-0.408198,-0.162263,9.315429,2.533316
2.796052,19.264221,-10.185242,-1.445796,-0.223934,9.308842,2.286030
2.811665,19.210815,-10.993958,-0.560786,-0.392184,9.217233,2.235735
2.827283,19.927979,-10.589600,1.087163,-0.256267,9.316626,2.198612
2.842903,22.697449,-11.459351,1.979802,-0.080233,9.402846,2.182446
2.858490,27.328491,-12.443542,1.132939,-0.008981,9.310040,2.123768
2.874097,25.779724,-14.442444,-0.118281,-0.129331,9.319021,2.077664
2.889699,23.254395,-16.212463,-1.476313,-0.218546,9.251961,1.990844
2.905299,20.210266,-16.838074,-1.331355,-0.138911,9.311836,1.935759
2.920895,21.423340,-17.242432,-1.010920,-0.238304,9.390872,1.916599
2.936520,21.675110,-17.219543,-1.461055,-0.070653,9.523795,1.885463
2.952125,24.208069,-17.250061,-2.056148,-0.210762,9.556128,1.774694
2.967726,26.382446,-17.189026,-2.529170,-0.129331,9.405242,1.747151
2.983328,27.267456,-16.632080,-1.163508,-0.314346,9.382489,1.587283
2.998934,26.947021,-15.457153,-0.980403,-0.061073,8.877739,1.613030
3.014532,21.987915,-14.831543,-0.057246,-0.142504,8.502918,1.354966
3.030133,17.021179,-12.123108,-0.385310,-0.188009,8.634645,1.060978
3.045728,6.134033,-11.146545,-0.499751,-0.220941,8.632249,1.077144
3.061327,-2.227783,-8.567810,-0.919368,-0.382604,8.996891,0.991522
3.076929,-10.482788,-5.180359,-0.278499,-0.525108,9.491463,1.155581
3.092512,-14.060974,-1.571655,-0.080134,-0.341290,9.575288,1.065169
3.108110,-9.788513,1.686096,-0.476863,-0.366438,9.352551,1.088521
3.123710,-7.209778,4.188538,-0.568416,-0.466430,9.593250,1.045410
3.139304,-0.061035,6.484985,0.637029,-0.464634,10.014175,1.371133
3.154891,4.287720,7.133484,0.911687,-0.285606,9.793235,1.376522
3.170486,12.092590,5.424500,-1.705195,-0.088616,9.853110,1.595666
3.186099,16.036987,3.128052,-4.428889,-0.383802,9.770482,1.704041
3.201703,21.392822,3.036499,-2.758052,-0.514330,9.539962,1.816008
3.217295,22.331238,4.066467,1.407598,-0.367037,9.305848,1.824989
3.232897,18.486023,3.623962,3.681157,-0.300575,9.201665,1.847143
3.248491,11.756897,1.777649,2.567266,-0.120948,9.332193,1.886062
3.264093,5.661011,-1.327515,-0.957515,-0.057480,9.572893,1.960308
3.279699,4.966736,-4.058838,-1.338984,-0.101190,9.641151,1.854328
3.295296,9.002686,-4.745483,1.598333,-0.074844,9.882449,1.562734
3.310898,15.045166,-7.301331,3.887151,-0.101788,9.537566,1.554951
3.326496,19.104004,-9.597778,4.474614,0.019759,9.662706,1.369935
3.342098,21.392822,-11.932373,2.048467,0.021555,9.957892,1.227432
3.357699,23.048401,-13.366699,-2.147700,0.032333,10.171049,1.078940
3.373305,25.833130,-15.167236,-5.321528,0.110770,9.964478,0.862790
3.388904,31.417847,-17.349243,-7.442500,0.023950,10.182425,0.483778
3.404507,37.200928,-20.034790,-7.755305,0.035327,9.450149,0.449050
3.420091,40.702820,-21.644592,-5.497005,-0.149090,9.414223,0.032916
3.435691,38.421631,-23.307800,-1.697566,-0.258662,9.114845,-0.234728
3.451290,34.301758,-24.703979,2.323125,-0.119152,9.350156,-0.271252
3.466882,31.837463,-24.826050,5.107854,-0.439486,9.750125,-0.272449
3.482463,31.951904,-25.337219,6.931279,-0.293989,9.376501,-0.168266
3.498066,35.018921,-25.314331,8.647893,-0.459844,8.910071,-0.355078
3.513652,38.513184,-23.536682,9.426091,-0.683778,9.080118,-0.185630
3.529235,41.496277,-20.935059,7.221196,-0.210163,9.666299,-0.686189
3.544821,40.260315,-19.508362,2.376531,-0.543669,9.674682,-0.855038
3.560391,38.673401,-16.746521,1.216863,-0.481998,9.407038,-1.024485
3.575974,36.766052,-14.915466,2.559636,-0.476609,9.392069,-0.964011
3.591563,38.368225,-10.772705,4.512761,-0.294587,8.962163,-0.981974
3.607150,39.497375,-9.483337,7.457707,-0.484393,8.601114,-0.755046
3.622726,42.228699,-9.727478,11.096929,-0.050894,9.051976,-1.155014
3.638324,41.542053,-9.201050,15.941594,0.216749,8.837622,-1.460379
3.653915,32.768250,-13.824463,16.887640,0.305964,9.063951,-1.722035
3.669520,19.401550,-22.216797,12.592290,-0.089214,9.611214,-1.209501
3.685109,6.195068,-25.657654,4.840825,0.183219,10.232122,-0.595178
3.700710,-10.292053,-25.581360,-2.254512,-0.499362,8.752000,-0.026361
3.716284,-11.901855,-20.690918,-1.567866,-0.735870,8.401130,0.153864
3.731864,-8.895874,-10.009766,0.850652,-0.477806,9.565109,0.262838
3.747477,-7.774353,-4.653931,1.941655,-0.473016,9.890233,0.420909
3.763073,-8.338928,1.907349,1.506780,-0.166454,9.936936,0.352651
3.778678,-6.355286,5.569458,0.141118,0.203577,9.799222,0.348459
3.794274,-0.701904,7.698059,-2.452876,0.378413,9.662107,-0.035342
3.809868,5.462646,9.117126,-2.109553,0.349074,9.596245,-0.365256
3.825466,9.567261,8.514404,0.209783,0.250878,9.563911,-0.783187
3.841082,9.803772,7.606506,2.483342,0.583187,9.705218,-0.984369
3.856690,8.460999,5.317688,3.284429,0.345482,9.598639,-0.964610
3.872293,8.277893,1.464844,2.513860,0.597557,9.236393,-1.158008
3.887906,8.407593,-1.388550,2.346013,0.523312,9.353748,-1.005325
3.903501,7.614136,-4.135132,1.964543,0.382006,9.505234,-1.299913
3.919098,5.569458,-6.904602,1.522039,0.286205,9.425000,-1.260994
3.934699,5.050659,-9.071350,1.110051,0.280217,9.287287,-1.354998
3.950283,3.295898,-11.138916,0.087712,0.296384,9.211843,-1.258000
3.965878,2.067566,-12.771606,-1.544978,0.320334,9.471105,-1.285543
3.981471,-0.099182,-14.213562,-2.437617,0.308359,9.539363,-1.256802
3.997066,-2.128601,-14.228821,-0.965144,0.159868,9.662107,-1.355597
4.012671,1.815796,-14.923096,2.086614,0.186213,10.077044,-1.671739
4.028271,5.928040,-15.075684,3.650640,0.081431,9.458530,-1.529835
4.043873,7.492065,-15.579224,3.467534,0.134121,9.817185,-1.677128
4.059465,8.079529,-16.769409,1.628850,0.173639,9.419612,-1.551988
4.075101,8.796692,-17.181396,0.171636,-0.003593,9.367520,-1.481934
4.090676,8.789062,-17.402649,1.522039,-0.126337,9.747729,-1.333443
4.106292,8.941650,-16.502380,2.201055,-0.170046,9.357940,-1.510076
4.121912,8.018494,-15.563965,2.490972,0.022753,9.684261,-1.509477
4.137535,6.973267,-15.830994,0.476812,0.038919,9.318422,-1.528637
4.153165,6.752014,-16.395569,1.438115,-0.088616,9.435180,-1.692097
4.168757,7.957458,-16.578674,1.270269,-0.094603,9.384884,-1.669345
4.184355,8.087158,-17.250061,1.514409,-0.045505,9.491463,-1.583124
4.199955,7.179260,-18.737793,2.124761,-0.042512,9.497450,-1.671739
4.215549,6.225586,-20.050049,1.308416,-0.052092,9.513617,-1.716646
4.231167,5.599976,-21.293640,1.651738,-0.037722,9.135203,-1.672937
4.246772,5.371094,-21.347046,2.651189,-0.193997,9.455537,-1.805861
4.262363,4.409790,-21.347046,3.131841,-0.007784,9.395062,-1.869329
4.278010,2.349854,-21.507263,2.506230,0.038320,9.245973,-1.812447
4.293623,0.595093,-22.171021,2.277349,-0.040715,9.190887,-1.841786
4.309207,-1.129150,-21.736145,2.284978,-0.119152,9.480685,-1.808854
4.324799,-2.845764,-20.462036,0.385259,0.058079,9.604029,-1.873520
4.340401,-0.938416,-20.576477,1.682256,-0.057480,9.695638,-2.029795
4.356012,0.442505,-19.401550,1.071904,-0.019160,9.483080,-1.936389
4.371614,0.679016,-17.349243,1.598333,-0.093406,9.519604,-1.741195
4.387228,-0.556946,-14.862061,2.216313,-0.124541,9.410031,-1.890285
4.402831,-2.113342,-12.939453,1.834844,0.002994,9.611813,-1.889686
4.418448,-1.502991,-11.375427,0.110601,-0.034129,8.917855,-1.978901
4.434048,0.373840,-10.337830,0.171636,-0.132325,9.109457,-2.084880
4.449641,-0.518799,-8.079529,1.026128,0.080832,9.117840,-1.644197
4.465243,0.404358,-5.409241,-1.453425,-0.075443,9.642947,-1.568754
4.480842,1.029968,-2.655029,-1.552607,0.020956,9.422606,-1.595698
4.496448,3.974915,-0.289917,0.560735,-0.001198,9.439969,-1.585519
4.512040,4.142761,1.182556,0.141118,0.120350,9.465716,-1.662758
4.527635,2.952576,2.815247,-1.178767,0.153281,9.457334,-1.548396
4.543245,3.112793,3.601074,-2.170588,0.199385,9.292676,-1.584920
4.558866,3.555298,3.807068,0.331853,0.141306,9.453741,-1.617253
4.574458,3.311157,3.913879,-0.400569,0.121547,9.618998,-1.673536
4.590056,1.892090,2.952576,0.873540,0.208965,9.453741,-1.658567
4.605645,1.602173,0.755310,0.659917,0.299377,9.341774,-1.567556
4.621245,3.509521,-3.532410,-0.926997,0.171244,9.477691,-1.544205
4.636846,7.591248,-5.966187,-1.018550,0.032932,9.604627,-1.446009
4.652442,7.171631,-7.263184,0.919316,0.000000,9.540561,-1.557377
4.668030,9.658813,-6.858826,0.881169,0.005389,9.379496,-1.575340
4.683620,9.681702,-7.263184,0.125859,0.037123,9.278306,-1.471755
4.699221,7.438660,-7.591248,-0.385310,-0.020358,9.372909,-1.541211
4.714811,6.706238,-6.599426,-0.064875,-0.105381,9.424402,-1.696887
4.730415,5.767822,-5.180359,0.804875,-0.174238,9.227411,-1.760954
4.746008,2.021790,-3.593445,1.430486,-0.082029,9.276509,-1.725029
4.761605,1.167297,-3.929138,1.377080,-0.089813,9.462124,-1.871724
4.777230,0.015259,-4.966736,0.484441,-0.116158,9.617201,-1.807657
4.792837,0.961304,-6.469727,-0.011470,-0.168849,9.683064,-1.919624
4.808433,3.379822,-7.522583,-0.118281,-0.198188,9.469309,-2.184872
4.824020,6.072998,-7.751465,0.652288,-0.329315,9.488468,-2.172897
4.839629,11.512756,-7.141113,0.064824,-0.438289,9.382489,-2.148348
4.855262,10.498047,-4.753113,0.766729,-0.519719,9.435180,-2.206428
4.870863,5.966187,-4.043579,0.324224,-0.274230,9.124426,-2.140565
4.886435,2.044678,-1.647949,0.164006,-0.549058,9.328601,-2.139966
4.902021,2.510071,1.121521,1.766179,-0.324525,9.314830,-2.039974
4.917612,4.257202,1.853943,1.201604,-0.110770,9.351953,-2.251933
4.933183,5.180359,0.488281,0.331853,0.085023,9.528585,-2.235168
4.948753,7.690430,-0.427246,0.400518,0.024549,9.687854,-2.302228
4.964351,11.260986,-1.281738,1.209233,0.215552,9.261540,-2.143558
4.979933,15.289307,-2.944946,1.117681,0.331710,9.222622,-2.178286
4.995522,16.517639,-4.707336,-0.835444,0.005389,9.166339,-2.056739
5.011091,13.374329,-3.715515,-1.529719,-0.095202,9.253757,-2.060930
5.026683,6.729126,-2.189636,0.476812,0.052690,9.108259,-1.964531
5.042272,2.136230,-1.335144,1.598333,-0.043110,8.878936,-1.773528
5.057840,-2.388000,0.831604,2.033208,0.197589,9.506432,-1.734609
5.073431,-1.380920,0.442505,0.003789,0.274230,9.718390,-1.694492
5.089005,3.837585,1.426697,-1.529719,-0.141306,9.493857,-1.726825
5.104600,10.391235,5.538940,-1.049067,-0.091610,9.289083,-1.914235
5.120182,11.840820,5.729675,-0.446345,-0.052690,9.426198,-2.177089
5.135774,8.804321,6.477356,-0.865962,-0.055684,9.268725,-2.271692
5.151354,7.667542,6.492615,-1.506831,-0.044308,9.090896,-2.222594
5.166925,8.934021,4.058838,-1.689937,-0.053289,9.352551,-2.273488
5.182512,9.475708,5.653381,-1.407649,-0.111967,9.472901,-2.257322
5.198115,9.506226,5.371094,-0.698115,-0.047900,9.268126,-2.278877
5.213705,10.162354,5.157471,-0.034358,0.074844,9.281898,-2.339950
5.229306,9.834290,4.508972,-0.461604,0.092208,9.256152,-2.341147
5.244929,8.865356,4.074097,-0.942256,0.083826,9.174721,-2.383060
5.260526,8.636475,3.753662,-0.904109,0.035327,9.387877,-2.363900
5.276153,9.376526,3.662109,0.202153,-0.031135,9.195079,-2.456108
5.291752,9.635925,4.539490,0.720952,-0.153281,9.225017,-2.544724
5.307345,8.842468,7.682800,0.820134,-0.104183,9.289682,-2.689024
5.322931,10.337830,4.570007,0.049565,-0.051493,9.304651,-2.799195
5.338525,13.214111,2.555847,-0.515010,-0.173040,9.207653,-2.814763
5.354146,14.320374,2.754211,-0.309016,-0.259860,9.297466,-2.725548
5.369750,14.755249,3.707886,-0.148799,-0.323926,9.305249,-2.664475
5.385330,17.288208,5.027771,-0.225093,-0.157473,9.141789,-2.659086
5.400914,18.478394,4.760742,0.034307,0.023950,9.210048,-2.680641
5.416480,18.173218,4.089355,-0.522639,0.005389,9.071735,-2.900983
5.432063,17.433167,3.311157,-0.568416,0.119751,9.032816,-3.357833
5.447642,15.029907,2.624512,0.049565,0.050894,8.971145,-3.200361
5.463230,13.885498,1.632690,-0.377681,0.228724,9.202264,-3.312328
5.478806,14.053345,1.091003,-0.232722,0.135319,9.115444,-3.175812
5.494383,16.090393,1.968384,0.286077,0.129331,9.211246,-3.490757
5.509961,16.792297,2.128601,-0.103022,0.120948,8.892109,-3.252452
5.525556,17.341614,2.166748,-1.361873,0.058678,9.011261,-3.428486
5.541155,18.020630,2.799988,-2.109553,0.153880,8.840017,-3.374599
5.556747,17.158508,3.372192,-1.499202,0.225731,8.605305,-3.505726
5.572340,15.342712,4.150391,-1.834895,0.233514,8.755592,-3.475189
5.587930,12.176514,4.013062,-1.567866,0.223934,8.816067,-3.376993
5.603519,11.291504,3.494263,-1.407649,0.155676,8.989706,-3.457825
5.619106,7.743835,3.852844,0.141118,0.138911,8.632848,-3.214132
5.634695,6.782532,3.372192,-0.911738,-0.056283,8.931626,-3.345259
5.650261,6.919861,3.585815,-1.300837,0.002994,8.922047,-3.433875
5.665852,6.614685,2.906799,-1.346614,-0.031135,8.912466,-3.430283
5.681465,5.958557,2.059937,-1.346614,-0.034129,8.905281,-3.436270
5.697082,4.737854,1.197815,-0.568416,-0.038919,8.852591,-3.500936
5.712687,3.868103,0.106812,-0.347163,-0.023351,8.870554,-3.514707
5.728301,3.730774,-0.923157,0.263188,-0.073048,8.908874,-3.515904
5.743898,3.974915,-1.670837,-1.491572,-0.037722,8.920250,-3.520096
5.759493,3.791809,-2.212524,0.606511,-0.064666,8.863369,-3.521892
5.775097,3.295898,-2.220154,0.987981,-0.068857,8.898695,-3.541052
5.790682,2.540588,-2.082825,1.094792,-0.066462,8.931626,-3.457825
5.806280,2.326965,-1.708984,0.713323,-0.053888,8.950787,-3.419505
5.821901,3.623962,-1.327515,0.492070,-0.043110,9.010662,-3.421301
5.837490,4.837036,-1.144409,0.019048,-0.107776,8.966354,-3.408129
5.853085,5.447388,-0.190735,0.423406,-0.102387,8.872949,-3.514707
5.868676,5.111694,-0.457764,0.667546,-0.030536,8.828042,-3.582965
5.884241,4.249573,-0.610352,0.164006,-0.014969,8.839418,-3.673976
5.899826,3.288269,-1.060486,0.446294,-0.015568,8.826844,-3.691938
5.915420,2.426147,-0.968933,0.835393,-0.026345,8.817863,-3.814085
5.931022,2.815247,-1.396179,0.858281,-0.039518,8.774753,-3.481177
5.946617,2.693176,-1.121521,0.774358,0.070653,8.920849,-3.654217
5.962215,2.830505,-0.961304,0.209783,0.011975,8.822055,-3.634458
5.977819,3.097534,-0.465393,0.255559,0.028141,8.922047,-3.697926
5.993414,3.227234,-0.328064,0.316594,0.108973,8.937614,-3.649427
6.009009,4.356384,-0.602722,0.530217,0.057480,8.937016,-3.718284
6.024602,7.720947,-0.526428,0.530217,0.087418,8.865165,-3.687148
6.040197,7.324219,-0.778198,0.370000,0.111368,8.892109,-3.717086
6.055780,7.995605,-0.732422,0.247930,0.026345,8.837622,-3.617094
6.071371,8.071899,-0.892639,0.453923,0.121547,8.822055,-3.864979
6.086990,7.820129,-0.549316,0.629399,0.125739,8.781339,-4.024846
6.102578,5.867004,-0.793457,0.904058,0.116158,8.840017,-3.992513
6.118161,7.995605,-0.961304,0.835393,0.106578,8.746612,-3.952996
6.133749,8.766174,-1.014709,-0.095393,0.085023,8.777746,-3.946409
6.149328,8.804321,-0.335693,-0.057246,-0.147294,8.768765,-3.936230
6.164928,8.514404,0.000000,-0.019099,0.063468,8.774154,-4.006884
6.180528,8.918762,-0.434875,0.049565,0.087418,8.614885,-3.905095
6.196134,8.087158,-0.923157,0.621770,0.305365,8.759784,-4.018858
6.211722,6.759644,-1.213074,0.446294,0.076641,8.683743,-3.938626
6.227300,6.721497,-1.075745,0.370000,0.335303,8.835826,-3.929644
6.242882,8.872986,-1.510620,-0.293757,0.098795,8.684939,-3.947008
6.258464,10.375977,0.015259,0.675176,0.046104,8.921448,-4.088913
6.274047,12.283325,-0.190735,0.644658,0.086819,8.766370,-4.011673
6.289626,13.282776,-0.152588,0.148748,0.273032,8.728649,-4.027840
6.305210,14.884949,-1.434326,-0.721003,0.073647,8.618478,-4.024846
6.320791,15.296936,-1.838684,0.110601,0.014370,8.579558,-4.218244
6.336377,12.580872,-0.602722,1.155828,-0.051493,8.420889,-4.315841
6.351956,9.468079,0.190735,1.064275,0.038919,8.365803,-4.386494
6.367540,7.331848,-0.625610,0.118230,0.001198,8.472980,-4.480499
6.383101,6.851196,-1.678467,-0.461604,-0.093406,8.601114,-4.505048
6.398672,7.888794,-1.403809,-0.339534,-0.208367,8.643625,-4.573905
6.414263,10.421753,-0.877380,0.217412,-0.168849,8.636440,-4.531991
6.429866,13.145447,-0.854492,0.217412,-0.132924,8.711285,-4.624799
6.445446,16.571045,-3.898621,-0.515010,-0.076641,8.517887,-4.574503
6.461029,19.020081,-0.076294,-0.415828,-0.037123,8.501720,-4.545763
6.476595,18.692017,-0.701904,-0.141169,-0.014969,8.577763,-4.533788
6.492174,17.944336,0.816345,-0.370051,-0.037123,8.266410,-4.582287
6.507756,19.210815,3.669739,-0.476863,-0.116158,8.653805,-4.515226
6.523335,17.288208,2.212524,-0.637080,0.091011,7.913145,-4.283508
6.538920,15.991211,2.174377,-0.301387,0.219144,8.500523,-4.574503
6.554499,15.281677,1.586914,0.507329,0.236508,8.726852,-4.661922
6.570085,12.573242,0.907898,1.239751,0.241897,7.598798,-4.610428
6.585669,11.741638,-0.976562,1.033757,0.146096,8.397537,-4.854721
6.601250,12.596130,-2.220154,1.178716,0.111368,7.695198,-4.792450
6.616823,12.710571,-2.532959,2.262090,0.040117,8.265212,-4.906213
6.632404,11.573792,-2.548218,2.246831,0.099393,8.471184,-5.116975
6.648004,11.787415,-4.150391,2.147649,0.088616,8.243058,-5.015187
6.663613,12.992859,-3.799438,2.605412,0.061073,8.492740,-5.061890
6.679219,14.976501,-2.906799,2.758000,-0.052690,8.232880,-5.049914
6.694819,16.502380,-2.304077,2.918218,0.060474,8.250842,-5.095420
6.710417,17.860413,-2.120972,3.047917,0.069456,8.173004,-5.095420
6.726015,19.119263,-2.464294,2.948735,0.073048,8.190368,-5.093025
6.741606,19.393921,-1.884460,2.353642,0.118553,7.874824,-5.165474
6.757212,19.912720,-1.724243,1.979802,-0.020358,7.865244,-4.888251
6.772813,19.989014,-1.800537,1.636479,-0.178429,7.845485,-5.285225
6.788443,18.348694,-1.472473,1.209233,-0.094603,7.986792,-5.212776
6.804042,16.021729,-0.755310,0.812505,0.022753,8.204140,-5.015187
6.819647,15.113831,-0.831604,-0.072505,-0.032333,8.095765,-5.033748
6.835251,16.120911,-1.007080,-0.598933,0.033530,8.000563,-5.112185
6.850830,17.402649,-0.762939,-0.865962,-0.167651,7.986792,-5.320552
6.866447,16.304016,-0.030518,-0.293757,0.065863,7.776628,-5.360070
6.882047,15.914917,-0.648499,2.185796,0.071252,7.625742,-5.499579
6.897649,15.571594,-2.067566,0.415776,0.064666,7.589817,-5.421143
6.913248,13.290405,-2.365112,1.110051,0.166454,7.655680,-5.512153
6.928848,13.275146,-3.906250,-0.339534,0.229922,7.524553,-5.397192
6.944466,18.051147,-4.501343,-2.674129,0.238304,7.712562,-5.703755
6.960074,21.041870,-3.120422,-7.404353,0.230521,7.902966,-6.010317
6.975661,22.941589,-0.694275,-8.739497,0.233514,7.643106,-5.846857
6.991258,28.335571,2.006531,-12.310054,0.166454,7.347920,-5.721119
7.006866,33.256531,5.119324,-12.462642,-0.034129,7.509584,-5.888770
7.022466,34.156799,10.337830,-2.414729,-0.223336,7.919731,-6.682120
7.038073,32.844543,16.784668,9.174321,0.148491,7.499405,-6.773131
7.053674,36.796570,15.235901,16.384100,0.595162,6.833590,-6.459383
7.069278,44.708252,4.249573,19.885992,0.452659,6.036647,-6.400705
7.084880,46.287537,-8.903503,16.612982,0.429906,6.818621,-5.873801
7.100481,52.680969,-18.051147,9.822820,0.649649,6.324049,-6.838396
7.116082,48.805237,-21.583557,-4.703547,0.872386,7.720944,-7.937709
7.131693,27.770996,-27.328491,-28.148676,-0.762215,6.248606,-5.573825
7.147300,30.532837,-12.413025,-34.160641,0.143102,6.527626,-6.725830
7.162902,34.500122,6.187439,-30.185724,-0.888552,6.310876,-6.064205
7.178499,39.512634,17.532349,-29.338861,0.493374,6.507268,-6.884500
7.194093,36.552429,21.354675,-39.890316,1.203497,6.231841,-6.744989
7.209699,33.226013,19.386292,-45.314816,0.313748,5.219945,-6.525247
7.225304,44.815063,20.111084,-38.379696,1.413660,4.852310,-7.199445
7.240905,41.122437,25.520325,-18.329645,-0.537083,6.926396,-8.307141
7.256494,16.044617,33.828735,7.259343,0.775388,6.478528,-8.708307
7.272094,23.345947,33.256531,17.391180,-0.228724,5.818700,-7.864661
7.287696,25.230408,19.630432,21.472906,-0.116158,4.703818,-6.479741
7.303297,11.367798,2.830505,17.215704,0.477806,6.549780,-7.407213
7.318905,4.394531,-7.896423,10.036443,-0.599354,6.049221,-7.278480
7.334507,10.025024,-17.494202,-1.255061,-1.024470,7.442523,-7.817359
7.350110,10.131836,-16.510010,-7.099177,-1.375939,6.499484,-7.094663
7.365709,22.354126,-6.530762,-2.864863,-0.937650,6.036647,-6.976708
7.381316,32.661438,1.708984,3.627751,-0.400567,6.077961,-7.694615
7.396925,28.503418,2.761841,3.635381,-0.005988,5.830675,-7.695214
7.412532,25.054932,-2.990723,0.843022,0.726290,5.239105,-7.452718
7.428133,20.233154,-7.743835,-4.123713,0.866997,6.256390,-8.937031
7.443715,10.467529,-7.148743,-1.712825,-0.374821,5.081034,-8.193976
7.459320,10.360718,0.495911,4.695867,-0.210762,5.831274,-8.544847
7.474924,4.783630,4.394531,5.428288,-0.332908,5.379813,-7.780237
7.490539,8.522034,4.676819,4.459355,-0.233514,5.709128,-8.243673
7.506146,3.257751,3.692627,1.155828,-0.169448,5.712121,-8.313128
7.521735,-2.532959,1.274109,-1.850154,-0.412542,5.364245,-7.473674
7.537335,1.411438,2.723694,-1.987483,-0.216749,5.630092,-7.767064
7.552935,2.990723,4.104614,-2.391841,-0.052690,5.990542,-8.096978
7.568535,3.501892,3.723145,-2.552058,0.070653,5.616920,-7.922740
7.584136,6.530762,2.265930,-2.429988,0.273631,5.230124,-7.852686
7.599735,8.255005,0.999451,0.102971,0.037123,5.013973,-8.013751
7.615334,8.438110,1.152039,4.726384,0.050894,4.802613,-7.795206
7.630934,8.377075,-0.907898,8.045171,0.077239,4.461921,-7.355121
7.646542,13.114929,-2.784729,10.761235,0.123942,4.343368,-7.770657
7.662150,16.494751,-5.500793,9.281133,-1.063389,7.185658,-10.353086
7.677761,10.375977,-5.989075,7.694219,0.280816,5.595963,-8.534069
7.693375,16.876221,-7.095337,1.750920,0.110171,6.152805,-8.859792
7.708984,10.643005,-3.845215,-4.016902,-0.447869,5.485193,-8.199366
7.724585,9.140015,3.837585,-4.146602,-0.159269,4.867877,-7.915555
7.740185,10.696411,7.385254,-5.580928,0.025746,5.790558,-8.442460
7.755811,0.885010,7.682800,-8.266475,-0.060474,4.977449,-7.209024
7.771410,4.745483,8.483887,-4.268672,0.082029,5.384004,-7.673059
7.787014,0.320435,8.819580,-3.040339,0.205972,5.712121,-7.773651
7.802614,-4.455566,7.453918,-1.300837,-0.063468,5.361251,-7.522173
7.818215,-6.607056,3.242493,-3.955867,0.038320,6.486910,-8.334683
7.833814,-18.852234,0.457764,-6.954219,-0.321531,5.776787,-6.965332
7.849412,-11.283875,0.099182,-3.849055,-0.463436,6.045628,-7.100051
7.865015,-7.812500,0.106812,-2.025630,-0.062271,6.495293,-7.679646
7.880613,-7.553101,-2.449036,-0.804927,0.186812,5.783972,-7.012633
7.896229,-4.257202,-5.378723,-0.186946,0.158071,5.636080,-7.135977
7.911835,-7.324219,-8.293152,0.728582,0.310155,5.361251,-7.379071
7.927441,-11.940002,-10.055542,2.048467,0.089813,5.182822,-7.638332
7.943031,-17.639160,-8.979797,5.199407,0.014370,5.615722,-7.857476
7.958610,-21.911621,-8.644104,7.884953,0.180225,5.472021,-7.680843
7.974188,-22.964478,-9.925842,7.442449,0.153880,5.373226,-7.849093
7.989778,-27.305603,-12.229919,5.786870,0.308958,5.610333,-7.766466
8.005360,-22.361755,-13.702393,6.656621,0.055085,6.294710,-8.265228
8.020939,-18.104553,-10.643005,7.472966,-0.347278,6.115084,-8.179606
8.036527,-10.299683,-8.316040,5.130742,-0.317939,6.276747,-8.303549
8.052093,-6.538391,-6.736755,2.254460,-0.351469,5.730084,-8.330493
8.067672,-3.547668,-3.578186,0.125859,-0.475411,5.788762,-8.283191
8.083232,-4.371643,-2.304077,-0.034358,-0.465233,5.470823,-8.159847
8.098808,-4.531860,-2.372742,0.324224,-0.386197,5.590574,-8.158649
8.114385,-5.165100,-3.166199,-0.141169,-0.152682,5.892347,-7.871248
8.129962,-6.584167,-1.884460,1.018499,-0.357457,5.709726,-7.537741
8.145546,-6.195068,-1.014709,1.880620,-0.125739,6.095325,-7.565284
8.161104,-7.080078,-0.839233,0.347112,-0.315544,5.877378,-7.391645
8.176690,-8.148193,0.251770,-0.339534,-0.339494,6.416257,-7.391645
8.192258,-8.560181,0.244141,-1.529719,-0.333506,6.218070,-7.377873
8.207844,-8.293152,0.846863,-1.491572,-0.243094,6.185737,-7.339553
8.223433,-7.804871,1.144409,-0.812556,-0.208965,6.231841,-7.359312
8.239023,-8.674622,1.960754,-1.438166,-0.016765,5.881569,-7.192259
8.254619,-9.155273,1.892090,-1.216914,0.095801,6.279741,-7.468286
8.270228,-8.514404,0.999451,-0.888850,-0.017963,5.788762,-7.452119
8.285836,-7.530212,0.366211,-0.026729,0.052690,6.233637,-7.721559
8.301442,-8.094788,-0.877380,0.461553,0.014969,5.529501,-7.497624
8.317020,-7.926941,-2.655029,0.583623,-0.153880,5.915698,-7.601808
8.332623,-9.429932,-3.890991,0.919316,-0.112566,5.849236,-7.341948
8.348230,-9.544373,-4.768372,1.636479,-0.124541,6.068381,-7.355720
8.363815,-8.789062,-4.966736,4.207585,0.053289,6.316265,-7.436552
8.379411,-6.706238,-6.370544,2.651189,-0.040715,6.449189,-7.429367
8.394989,-5.264282,-6.355286,3.192876,-0.022753,6.412066,-7.191062
8.410582,-2.265930,-5.706787,3.620122,-0.158071,6.395301,-7.594623
8.426178,0.411987,-3.974915,2.048467,-0.388592,6.171367,-7.462298
8.441775,2.090454,-1.861572,0.690435,-0.355660,6.500083,-7.222197
8.457382,4.943848,-0.656128,-1.522090,-0.446671,6.513256,-7.217407
8.472986,4.905701,-0.526428,1.102422,-0.525707,6.458170,-7.102446
8.488583,7.644653,-0.991821,0.087712,-0.449066,6.437812,-7.131785
8.504181,7.972717,-0.373840,-0.721003,-0.425715,6.377338,-6.982695
8.519779,9.307861,0.885010,-0.232722,-0.319735,6.392307,-7.195253
8.535382,8.499146,1.594543,-0.690486,-0.108973,6.189928,-7.229383
8.550969,8.239746,1.113892,-0.988032,-0.230521,6.583909,-7.207228
8.566557,8.430481,1.182556,-0.080134,-0.107177,6.287525,-7.398231
8.582156,9.796143,-0.205994,0.301335,-0.099992,6.270760,-7.438348
8.597758,10.490417,-1.045227,0.095342,-0.091011,6.279741,-7.465292
8.613347,11.009216,-1.274109,2.239202,-0.027543,5.788164,-7.820952
8.628937,10.231018,-1.419067,0.583623,-0.122146,5.604944,-7.595820
8.644546,6.172180,-1.396179,0.331853,-0.188608,5.569019,-7.832927
8.660125,4.333496,-1.564026,0.644658,-0.159868,5.795947,-7.982616
8.675710,2.189636,-1.724243,0.720952,-0.190404,5.855823,-8.008961
8.691309,0.648499,-1.960754,0.949834,-0.177830,5.763016,-7.898191
8.706910,1.205444,-1.770020,1.201604,-0.188608,5.949228,-7.726349
8.722495,1.281738,-1.640320,0.507329,-0.216151,5.908513,-7.859871
8.738072,2.105713,-0.930786,0.102971,-0.296384,5.986351,-7.585043
8.753663,0.862122,-0.373840,0.270818,-0.228126,5.850434,-7.352127
8.769249,-0.709534,-0.488281,0.293706,-0.152084,5.898933,-7.324584
8.784807,-2.174377,-0.640869,-0.080134,-0.188009,6.073770,-7.507205
8.800374,-2.891541,-0.694275,0.141118,-0.222737,6.045029,-7.410206
8.815961,-0.259399,-0.221252,-0.164058,-0.131726,6.279741,-7.710183
8.831551,-0.328064,0.503540,-0.827815,-0.483794,6.236631,-7.677251
8.847155,2.853394,1.083374,-0.659968,-0.352667,6.327043,-7.408410
8.862755,6.195068,0.656128,-0.453975,-0.259261,6.355185,-7.438947
8.878363,9.513855,-0.183105,-0.576045,-0.240699,6.336024,-7.346738
8.893960,12.405396,0.885010,-0.171687,-0.002395,6.355783,-7.216210
8.909547,14.869690,1.823425,-0.888850,-0.171244,6.452183,-7.112625
8.925150,15.464783,1.441956,-1.606013,-0.304167,6.263575,-7.109632
8.940758,14.411926,1.846313,-0.652339,-0.276026,6.074967,-6.862944
8.956365,16.700745,0.038147,-0.965144,-0.256866,6.570736,-7.307220
8.971936,16.662598,0.358582,-1.224543,-0.050894,6.140830,-6.965930
8.987523,21.316528,0.114441,-0.766780,-0.069456,6.345006,-7.589833
9.003127,23.826599,-0.106812,-0.820186,-0.165855,5.853428,-7.419188
9.018726,25.245667,-1.113892,0.293706,-0.124541,5.560038,-7.761675
9.034325,24.032593,-1.754761,1.140569,-0.156275,5.032535,-7.735929
9.049922,18.508911,-1.144409,-0.087764,-0.121547,4.916975,-8.398151
9.065523,14.533997,-0.473022,0.820134,-0.276625,4.284091,-8.571192
9.081107,9.338379,-0.755310,1.209233,-0.165855,4.991819,-8.414318
9.096707,8.148193,-1.205444,-0.347163,-0.218546,5.092410,-8.420904
9.112304,7.049561,-0.419617,-0.499751,-0.407752,5.073849,-8.368214
9.127898,8.102417,0.602722,-0.286128,-0.274230,5.302573,-8.390966
9.143501,9.628296,-1.831055,-1.178767,-0.420326,5.223537,-8.388572
9.159104,11.344910,3.562927,-0.911738,-0.312550,5.288203,-8.354443
9.174704,10.734558,2.052307,-1.102473,-0.241298,5.154082,-8.087996
9.190313,10.498047,1.457214,-1.468684,-0.207768,5.234914,-8.153860
9.205923,8.033752,2.204895,-0.515010,-0.182021,5.037325,-7.873044
9.221521,5.912781,1.258850,-0.705745,-0.007185,5.267846,-8.143083
9.237131,5.218506,0.648499,-0.072505,-0.004790,5.152286,-8.125718
9.252732,4.104614,1.403809,-0.370051,-0.143701,5.152884,-8.110749
9.268329,3.326416,1.655579,-1.171138,-0.219144,5.231321,-8.174217
9.283929,3.639221,1.197815,-0.881221,-0.226928,5.157076,-8.219124
9.299540,3.250122,0.282288,-0.118281,-0.228126,5.079836,-8.121527
9.315149,2.944946,-0.465393,0.102971,-0.077239,5.169650,-8.216130
9.330754,2.525330,-0.885010,0.217412,0.053888,5.209167,-8.280796
9.346359,3.707886,-0.976562,0.255559,-0.061672,5.411547,-8.235291
9.361961,6.164551,-0.198364,0.484441,-0.110171,5.475015,-8.113145
9.377562,8.636475,0.518799,-0.431086,-0.322729,5.467231,-7.983813
9.393165,10.467529,0.411987,-0.690486,-0.544268,5.401967,-7.870649
9.408774,11.840820,1.152039,-0.644709,-0.479004,5.320536,-7.946691
9.424380,11.695862,1.434326,-0.995662,-0.256866,5.237309,-7.992795
9.439987,12.321472,1.434326,-1.186396,-0.271835,5.056485,-7.996986
9.455573,15.769958,1.655579,-1.323726,-0.108375,5.416935,-8.237087
9.471168,18.661499,1.617432,-1.300837,-0.037722,5.275031,-8.251457
9.486778,21.453857,0.968933,-0.583674,0.088017,5.476811,-8.242476
9.502387,23.712158,-0.190735,0.202153,0.088616,5.053491,-8.136496
9.517987,24.864197,-1.701355,0.545476,0.008383,5.031936,-8.126317
9.533587,25.596619,-0.053406,0.354741,-0.017963,4.939728,-8.150268
9.549188,24.909973,-1.670837,0.766729,-0.148491,4.790638,-8.014949
9.564795,24.848938,-1.525879,0.522588,-0.316741,4.789440,-8.232896
9.580399,24.261475,-1.617432,-0.766780,-0.242496,4.727170,-8.216729
9.596010,25.360107,-0.610352,-0.858333,-0.168849,4.644542,-8.532273
9.611610,25.634766,-0.045776,-0.682856,-0.113763,4.307443,-8.629272
9.627212,26.222229,-0.946045,-0.659968,-0.211360,3.910468,-8.940624
9.642808,24.650574,-1.884460,1.728032,-0.408351,3.558999,-9.046603
9.658435,21.133423,-0.457764,1.354192,-0.152682,3.963757,-8.917871
9.674028,17.532349,-0.297546,-0.644709,-0.292192,3.676355,-8.949605
9.689633,15.121460,1.144409,-1.010920,-0.457449,4.055965,-9.325025
9.705242,15.678406,2.761841,-2.277400,-0.546064,4.217629,-8.949006
9.720846,17.669678,3.295898,-2.864863,-0.475411,4.135600,-8.669987
9.736463,20.278931,3.356934,-2.498652,-0.208367,4.288881,-8.889729
9.752062,22.102356,2.624512,-2.285029,0.136516,4.069138,-8.799916
9.767664,21.286011,2.059937,-2.574946,0.138312,3.818260,-8.780756
9.783263,21.545410,1.670837,-1.087214,0.099992,3.818859,-9.145398
9.798873,21.194458,1.708984,-0.286128,0.260458,3.585344,-9.164558
9.814461,21.179199,-0.976562,0.133489,0.050295,3.464396,-9.092109
9.830054,20.744324,-1.502991,1.331304,-0.190404,3.391348,-9.176533
9.845646,21.301270,-2.334595,1.407598,0.068857,3.410508,-9.226829
9.861243,20.271301,-3.204346,1.415227,-0.091011,3.245251,-9.176533
9.876840,19.371033,-2.212524,1.605962,-0.155078,3.289559,-8.961580
9.892442,17.929077,-2.250671,0.797246,-0.226928,2.914739,-9.031634
9.908034,14.724731,-1.441956,-0.179316,-0.304167,3.063829,-9.096899
9.923631,11.787415,-0.892639,0.949834,-0.302371,2.957849,-9.260958
9.939236,9.689331,-0.312805,0.583623,-0.286205,3.051255,-9.436393
9.954824,8.544922,0.373840,-0.690486,-0.396376,2.881208,-9.429807
9.970410,8.880615,1.884460,-1.384761,-0.256267,3.096760,-9.353765
9.986011,9.399414,1.922607,-1.850154,-0.407752,3.100951,-9.290297
10.001622,10.337830,1.312256,-1.949336,-0.186812,3.247647,-9.287303
10.017210,10.086060,1.518250,-1.003291,-0.211360,3.152444,-9.126238
10.032803,8.804321,1.724243,-1.682307,0.019160,3.107538,-9.169947
10.048396,7.339478,1.312256,0.255559,-0.073048,3.045267,-9.188508
10.063989,6.828308,0.076294,0.057195,-0.003593,3.068020,-9.234014
10.080037,6.675720,-0.968933,0.873540,0.068258,3.028502,-9.261557
10.095652,6.866455,-0.854492,0.720952,0.031135,2.935097,-9.385499
10.111266,7.682800,-0.358582,0.560735,-0.127535,3.008743,-9.310655
10.126868,8.323669,-1.091003,0.705693,-0.222138,2.947072,-9.333407
10.142464,8.255005,-1.327515,0.698064,-0.307161,2.841092,-9.338197
10.158071,8.117676,-0.701904,0.057195,-0.290995,2.884202,-9.288501
10.173677,7.736206,0.526428,-0.606562,-0.289797,2.765649,-9.399270
10.189255,7.598877,1.502991,-1.323726,-0.343685,2.797383,-9.391486
10.204850,7.423401,1.411438,-1.812007,-0.232317,2.611170,-9.256766
10.220471,6.263733,1.045227,-0.759150,-0.108375,2.847080,-9.223835
10.236071,5.157471,0.572205,0.034307,0.048499,2.851870,-9.206470
10.251672,4.531860,0.221252,-0.782039,0.075443,3.022515,-9.251976
10.267273,4.158020,0.686646,-0.469233,-0.090412,2.854863,-9.285506
10.282873,4.631042,-0.045776,0.164006,-0.126337,2.901566,-9.204076
10.298473,5.165100,-0.953674,0.019048,-0.159269,2.784210,-9.369332
10.314071,5.889893,-0.816345,0.659917,-0.096998,2.623744,-9.472318
10.329655,6.172180,-0.808716,0.591252,-0.062271,2.724933,-9.400468
10.345252,6.126404,-0.854492,0.408147,-0.189207,2.708168,-9.293889
10.360854,6.011963,-0.869751,0.888799,-0.172441,2.721341,-9.262156
10.376468,5.966187,-1.373291,0.865911,-0.222737,2.786006,-9.323228
10.392070,6.187439,-0.869751,0.804875,-0.227527,2.849474,-9.416634
10.407675,8.308411,-0.579834,0.743840,-0.311951,2.819537,-9.450763
10.423277,10.169983,-0.526428,0.133489,-0.188009,2.738705,-9.451362
10.438876,10.772705,-0.434875,1.026128,-0.003593,2.532134,-9.401066
10.454481,10.459900,-0.915527,0.637029,-0.031135,2.569257,-9.354962
10.470092,8.651733,-0.709534,0.133489,0.056283,2.309996,-9.462139
10.485701,6.935120,-0.686646,0.713323,-0.238304,2.293830,-9.563329
10.501304,6.240845,-1.045227,0.614141,-0.352667,2.202220,-9.572310
10.516908,5.119324,-1.052856,0.331853,-0.319735,2.258503,-9.513034
10.532510,3.639221,-0.427246,0.308965,-0.224533,2.183659,-9.487885
10.548108,1.869202,-0.083923,-0.064875,-0.116757,2.234553,-9.510039
10.563706,-0.274658,0.129700,2.246831,-0.143102,2.238146,-9.519620
10.579290,-1.945496,0.137329,0.247930,-0.190404,2.264491,-9.420825
10.594898,-2.586365,0.122070,-0.392939,-0.274230,2.461481,-9.526206
10.610497,-2.548218,0.495911,-0.278499,-0.199984,2.260898,-9.455553
10.626109,-1.693726,0.289917,-0.515010,-0.129331,2.470463,-9.513632
10.641697,-1.487732,0.511169,-0.751521,-0.059277,2.511178,-9.462139
10.657278,-0.946045,0.366211,-0.637080,-0.096400,2.579436,-9.428609
10.672861,-0.625610,-0.144958,-0.179316,-0.047302,2.556683,-9.380110
10.688446,1.853943,-0.526428,0.354741,-0.056882,2.646497,-9.422622
10.704018,1.007080,-0.503540,0.431035,0.011975,2.680027,-9.444177
10.719569,2.319336,-1.335144,0.240300,-0.145497,2.659669,-9.294488
10.735149,2.937317,-0.740051,1.209233,-0.069456,2.641706,-9.329815
10.750703,3.585815,-1.487732,0.606511,-0.228126,2.589615,-9.389690
10.766275,3.982544,-1.281738,1.163457,-0.265847,2.509980,-9.419628
10.781866,3.761292,-0.907898,1.010869,-0.380209,2.447111,-9.422622
10.797470,3.463745,-0.198364,-0.461604,-0.427511,2.404001,-9.423221
10.813051,2.372742,0.564575,-0.873591,-0.393981,2.444118,-9.413041
10.828639,2.136230,0.450134,-0.370051,-0.295785,2.517165,-9.471121
10.844245,2.655029,0.427246,-0.637080,-0.010778,2.511178,-9.426813
10.859841,3.288269,0.663757,-0.751521,-0.147892,2.480043,-9.381308
10.875444,2.616882,0.885010,-0.156428,0.117356,2.383044,-9.232816
10.891043,1.358032,-0.679016,-0.087764,-0.038320,2.441722,-9.342987
10.906635,0.602722,0.312805,0.362371,-0.249681,2.589016,-9.375918
10.922235,1.144409,-0.122070,-0.370051,-0.325124,2.610571,-9.313049
10.937846,3.334045,0.205994,-0.843074,-0.422721,2.719545,-9.483096
10.953436,6.790161,-0.183105,-0.400569,-0.120350,2.663861,-9.642365
10.969040,8.743286,-1.121521,-0.194575,-0.073647,2.359693,-9.475910
10.984618,9.559631,-0.556946,-0.339534,-0.116158,2.189647,-9.508244
11.000214,8.598328,-0.106812,-0.179316,0.042512,2.099235,-9.540576
11.015814,6.034851,-1.144409,0.888799,-0.174238,2.105821,-9.458547
11.031416,4.562378,-1.754761,2.040837,-0.401765,2.344724,-9.465133
11.047002,4.425049,-1.594543,1.720403,-0.349673,2.364483,-9.547761
11.062594,6.500244,-1.892090,1.728032,-0.338297,2.448309,-9.481898
11.078197,8.705139,-1.701355,1.361821,-0.011975,2.406995,-9.454954
11.093799,11.489868,-1.617432,0.575994,-0.096400,2.327959,-9.608235
11.109388,13.000488,-0.831604,0.995610,-0.171843,1.992057,-9.515429
11.124986,13.397217,-0.915527,0.675176,-0.102986,2.024989,-9.622006
11.140584,11.940002,-1.701355,1.132939,-0.310754,1.983076,-9.477108
11.156180,10.612488,-1.632690,2.185796,-0.194595,1.927991,-9.512435
11.171779,9.910583,-0.038147,1.529668,-0.096998,2.033372,-9.644161
11.187387,9.689331,-1.335144,0.858281,-0.170645,2.147734,-9.508244
11.202990,9.719849,-0.671387,0.484441,-0.077239,1.956731,-9.382504
11.218591,9.002686,-0.389099,-0.278499,-0.076641,1.142424,-9.308858
11.234191,8.522034,0.045776,-0.911738,-0.376617,1.890269,-9.630389
11.249790,7.133484,0.335693,-1.018550,-0.361648,1.748963,-9.572310
11.265391,6.866455,0.267029,-0.942256,-0.340692,1.787882,-9.676494
11.281001,5.981445,0.000000,-0.797297,-0.255070,1.623224,-9.796844
11.296616,6.401062,-0.274658,-0.812556,-0.106578,1.124462,-9.680086
11.312216,7.041931,-0.244141,-0.316646,-0.230521,1.950743,-9.827380
11.327812,7.385254,-0.282288,0.392888,-0.047900,1.850153,-9.766307
11.343392,7.102966,-0.358582,0.186895,-0.061073,1.990261,-9.442380
11.358999,7.736206,-0.625610,0.904058,-0.207169,1.852548,-9.565125
11.374607,8.750916,-1.174927,1.071904,-0.132924,1.923799,-9.788461
11.390211,10.856628,-1.426697,0.446294,-0.204774,2.179468,-9.581890
11.405808,11.245728,-1.350403,0.492070,-0.132924,1.738784,-9.696253
11.421404,12.825012,-1.487732,0.949834,-0.125140,1.863325,-9.863904
11.437010,13.946533,-1.541138,0.781987,-0.306563,1.793870,-9.667512
11.452609,16.082764,-1.083374,1.239751,-0.307760,1.687890,-9.697450
11.468215,16.860962,-1.091003,1.155828,-0.156874,1.766926,-9.550157
11.483815,16.967773,-2.586365,1.560186,-0.094603,1.645977,-9.363943
11.499412,16.685486,-3.295898,2.231572,-0.432301,1.537004,-9.510039
11.515009,14.007568,-2.784729,2.963994,-0.260458,1.360371,-9.527404
11.530614,12.893677,-2.990723,3.498052,-0.186812,1.233435,-9.771097
11.546216,12.283325,-3.196716,3.124211,-0.150886,1.134640,-9.733376
11.561840,12.550354,-3.112793,2.834294,-0.081431,1.156196,-9.819596
11.577432,11.756897,-3.166199,2.666448,-0.086221,1.080753,-9.422622
11.593032,10.772705,-2.586365,2.590154,-0.317939,0.968187,-9.853127
11.608621,9.216309,-1.739502,2.162908,-0.123344,0.979563,-9.769300
11.624231,9.414673,-1.968384,1.827214,-0.180824,0.789159,-9.735770
11.639839,10.459900,-1.823425,1.163457,-0.167053,0.899330,-9.883064
11.655445,10.948181,-2.067566,1.087163,-0.311951,0.882565,-9.887854
11.671049,11.566162,-1.869202,0.888799,-0.388592,0.837658,-9.640568
11.686650,10.559082,-1.533508,0.621770,-0.471819,1.002914,-9.598656
11.702249,10.261536,-0.930786,-0.095393,-0.516725,0.965792,-9.810016
11.717832,10.414124,-0.625610,-0.209834,-0.394579,1.005309,-9.868095
11.733443,11.634827,-0.228882,-0.957515,-0.373623,1.033451,-9.746548
11.749044,12.176514,0.259399,-1.827266,-0.365240,0.917891,-9.834565
11.764646,11.924744,1.007080,-1.773860,-0.474214,0.282014,-9.699845
11.780237,12.092590,0.267029,-1.628901,-0.415536,0.798739,-9.699246
11.795841,12.382507,0.350952,-1.415278,-0.339494,0.649050,-9.864503
11.811460,13.656616,0.320435,-1.140620,-0.137714,0.670007,-10.106400
11.827071,15.396118,0.762939,-1.194026,-0.238903,0.647853,-9.812411
11.842660,16.921997,0.816345,-1.445796,-0.225132,0.534089,-9.905817
11.858257,17.189026,0.572205,-2.201106,-0.382604,0.661624,-9.551952
11.873855,16.235352,0.686646,-2.971675,-0.331710,0.339494,-9.620810
11.889469,15.419006,1.098633,-3.002192,-0.212558,0.520318,-9.562131
11.905073,13.900757,1.693726,-2.948787,-0.195793,0.465831,-9.532193
11.920672,12.474060,1.640320,-2.910640,-0.138312,0.165855,-9.497466
11.936270,11.970520,1.815796,-1.918818,-0.126936,-0.299377,-9.705234
11.951873,10.963440,1.075745,-1.071956,-0.277822,0.052690,-9.654939
11.967473,8.888245,0.518799,-0.812556,-0.284409,0.033530,-9.623803
11.983073,8.605957,0.205994,-0.537898,-0.234712,0.040715,-9.586680
11.998674,8.163452,0.015259,-0.110652,-0.289199,0.029339,-9.515429
12.014273,10.009766,1.754761,1.377080,-0.365839,0.410147,-9.925575
12.029880,10.894775,2.922058,2.811406,-0.152084,0.049697,-9.787263
12.045480,12.321472,3.791809,3.711675,-0.198188,0.033530,-9.927372
12.061088,12.252808,4.890442,4.703496,-0.257465,-0.075443,-9.513632
12.076697,11.489868,4.096985,4.833196,-0.264051,0.095202,-9.891446
12.092293,13.092041,4.631042,4.146550,-0.223336,-0.177231,-10.062691
12.107899,14.533997,5.493164,7.701848,-0.183818,-0.446671,-9.416035
12.123499,17.616272,4.486084,6.610845,-0.043110,-0.056882,-10.114782
12.139098,16.174316,0.076294,5.596135,0.096400,-0.162861,-10.093227
12.154697,16.593933,-0.854492,0.728582,-0.111368,-0.347278,-9.687271
12.170304,17.288208,-1.617432,-1.163508,-0.035327,-0.215552,-9.680685
12.185931,20.339966,-0.114441,-0.392939,0.230521,-0.385598,-9.740561
12.201554,20.904541,0.625610,0.293706,0.152682,-0.302371,-10.273452
12.217125,18.692017,-0.671387,-0.843074,0.309556,-0.362845,-10.072869
12.232712,16.990662,-1.953125,-3.276851,-0.225132,-0.628094,-9.803430
12.248291,16.983032,-0.518799,-4.863765,-0.354463,-0.588576,-9.636377
12.263893,14.007568,2.151489,-3.833797,-0.086819,-0.567620,-9.544767
12.279481,17.471313,0.663757,-4.810359,-0.060474,-0.483794,-9.707030
12.295062,18.440247,0.724792,-6.465938,-0.046104,-1.072969,-9.433998
12.310662,20.797729,0.564575,-7.267024,-0.104183,-1.014291,-9.462738
12.326283,22.445679,0.473022,-7.984187,0.012574,-0.802332,-10.277643
12.341880,25.222778,0.488281,-7.778193,-0.029339,-1.340612,-9.793850
12.357469,27.282715,0.297546,-7.152583,0.028740,-1.221460,-9.358555
12.373035,28.175354,-1.388550,-7.770564,-0.099992,-1.087339,-9.795047
12.388606,28.083801,1.907349,-5.977656,-0.099393,-1.470542,-9.657333
12.404182,28.442383,3.471375,-3.208186,0.216151,-1.511856,-9.090313
12.419761,33.653259,0.755310,-3.589656,0.029938,-1.387315,-9.998025
12.435317,34.500122,0.190735,-4.322078,0.076042,-1.775907,-9.440584
12.450891,36.048889,-0.015259,-4.978206,-0.098196,-1.792672,-9.415437
12.466466,35.690308,-2.838135,-6.336238,0.250280,-1.861529,-9.854922
12.482065,33.996582,-2.304077,-7.076289,0.123344,-2.181264,-9.304667
12.497696,32.089233,-1.754761,-6.931331,0.153281,-2.227967,-9.833966
12.513301,28.869629,-0.015259,-5.931880,0.114362,-1.845363,-10.129152
12.528898,26.084900,-1.136780,-5.458858,-0.133522,-1.999243,-9.286105
12.544497,24.398804,-1.579285,-6.732966,-0.227527,-1.837579,-9.532193
12.560095,21.560669,-1.586914,-6.511714,-0.213755,-2.155518,-9.566921
12.575696,19.874573,-0.587463,-5.863215,-0.244292,-1.889670,-10.101010
12.591300,15.686035,-0.450134,-4.871394,0.082628,-2.107617,-9.766906
12.606909,13.221741,-1.190186,-4.093196,-0.331710,-1.551374,-10.175257
12.622499,7.209778,-2.510071,-3.849055,-0.472418,-1.411864,-9.731579
12.638099,1.869202,-3.211975,-3.139522,-0.717308,-1.592688,-9.689068
12.653681,-2.510071,-1.777649,-1.735713,-0.572410,-1.694476,-9.354363
12.669276,-3.112793,-1.617432,-0.385310,-0.499960,-1.730402,-9.190904
12.684868,-1.609802,-1.213074,0.476812,-0.374821,-1.778302,-9.504651
12.700469,-1.647949,-0.946045,1.285527,-0.245490,-2.086661,-9.438190
12.716071,-1.205444,-1.792908,1.399968,-0.159269,-2.239942,-9.638772
12.731673,-2.067566,-1.708984,1.422856,-0.147294,-2.344125,-9.533391
12.747269,-4.562378,-0.495911,2.193425,0.174238,-2.547103,-9.369931
12.762862,-4.936218,-0.823975,2.101872,-0.091011,-2.188449,-9.303470
12.778471,-5.340576,-2.929688,3.612493,0.085023,-2.290237,-9.397473
12.794071,-5.432129,-3.349304,4.596684,-0.064666,-2.162104,-9.558538
12.809675,-6.256104,-1.884460,5.672429,-0.100591,-2.147135,-10.134541
12.825273,-6.217957,-0.022888,7.091496,0.077239,-2.366878,-9.736968
12.840866,-3.494263,-3.448486,7.373784,0.018561,-1.953138,-9.958508
12.856464,-3.295898,-2.639771,4.917119,-0.106578,-2.356699,-9.675895
12.872064,-3.700256,-1.541138,2.635930,-0.334704,-2.364483,-9.701042
12.887666,-3.318787,-1.899719,0.667546,-0.383203,-2.034569,-9.755529
12.903258,-1.838684,-0.518799,-1.056697,-0.392184,-2.095043,-9.863904
12.918854,-0.892639,0.259399,-2.262141,-0.440684,-1.764531,-9.487287
12.934467,0.869751,0.778198,-2.552058,-0.379611,-1.926793,-9.744153
12.950068,1.747131,0.030518,-2.857234,-0.340093,-1.833986,-9.550755
12.965672,2.960205,1.289368,-3.116633,-0.373024,-1.782493,-9.542373
12.981266,4.020691,0.778198,-3.551509,-0.167651,-1.877097,-9.814806
12.996868,4.341125,3.623962,-2.491023,-0.187410,-2.023792,-9.514231
13.012465,4.783630,1.907349,-1.400020,-0.031734,-1.971101,-9.489083
13.028068,3.929138,0.564575,-2.498652,0.152084,-2.351909,-9.633982
13.043677,2.601624,0.701904,-2.018001,0.190404,-2.548900,-9.429208
13.059274,2.449036,1.937866,-1.400020,-0.044308,-2.465672,-9.639970
13.074867,0.900269,-0.701904,0.049565,-0.045505,-2.366279,-9.450763
13.090467,0.465393,-0.579834,1.476262,0.014370,-2.293830,-9.539379
13.106074,-2.418518,-1.144409,1.621221,-0.073048,-2.509980,-9.729184
13.121674,-4.554749,-0.640869,1.895879,-0.029938,-2.295027,-9.729184
13.137277,-3.654480,-0.701904,1.705144,-0.261057,-2.689008,-9.880070
13.152879,-2.746582,-1.464844,1.575444,-0.148491,-2.441124,-9.733974
13.168481,-0.450134,-2.304077,1.468633,-0.254471,-2.112407,-9.798639
13.184095,0.350952,-1.571655,2.010320,-0.310754,-2.079476,-9.770498
13.199698,1.144409,-0.534058,2.353642,-0.375419,-1.781895,-9.971680
13.215299,2.067566,-0.061035,2.696965,-0.287402,-2.381248,-9.559736
13.230907,5.340576,-0.167847,1.666997,-0.474214,-1.936373,-9.851929
13.246506,7.980347,-0.480652,0.301335,-0.362845,-2.345922,-9.938748
13.262101,9.185791,-0.312805,-0.225093,-0.138911,-2.495610,-9.769899
13.277702,9.178162,0.534058,-1.064326,-0.074844,-2.561473,-9.616618
13.293299,9.140015,1.953125,-2.849605,-0.228724,-2.254312,-9.597458
13.308902,9.254456,2.914429,-6.053950,-0.442480,-2.057920,-9.524410
13.324494,8.697510,2.090454,-7.282283,-0.450264,-2.011817,-9.444177
13.340096,8.361816,1.647949,-6.374385,-0.057480,-2.006428,-9.370530
13.355699,8.384705,2.876282,-6.237056,0.132924,-2.041754,-9.452559
13.371302,6.866455,3.562927,-6.153132,-0.013771,-2.286046,-9.394480
13.386902,5.325317,2.220154,-4.337337,-0.035327,-2.290237,-9.445972
13.402497,5.676270,1.716614,-1.674678,-0.125739,-2.363884,-9.601649
13.418097,8.209229,1.419067,-0.347163,0.229922,-2.378853,-9.734572
13.433737,8.995056,1.235962,-1.384761,0.269440,-2.327959,-9.707629
13.449335,9.536743,0.892639,-0.759150,-0.044308,-2.283052,-9.776485
13.464944,11.245728,0.175476,0.965093,0.154479,-2.653682,-9.514830
13.480530,13.687134,-1.960754,1.071904,0.250878,-2.535727,-9.501657
13.496110,12.672424,-2.197266,1.995061,0.008383,-2.756667,-9.504651
13.511693,10.955811,-0.915527,3.444646,-0.037123,-2.742297,-9.441183
13.527269,10.551453,-1.441956,3.658269,-0.196990,-2.789599,-9.598656
13.542845,11.077881,-1.960754,3.574346,-0.258662,-2.844684,-9.701042
13.558434,12.573242,-1.022339,3.154729,-0.234712,-2.817142,-9.611229
13.574010,13.153076,0.137329,1.209233,-0.304766,-2.877017,-9.525607
13.589588,12.504578,0.381470,-1.079585,-0.282612,-2.994373,-9.387295
13.605155,11.329651,0.625610,-2.323176,-0.258063,-2.974015,-9.300475
13.620727,9.788513,0.900269,-3.269221,-0.220941,-2.965034,-9.336401
13.636324,8.285522,1.312256,-4.329707,-0.122745,-2.998564,-9.407653
13.651891,7.019043,1.579285,-4.985835,-0.011376,-3.069217,-9.370530
13.667475,6.637573,1.876831,-5.077388,-0.059875,-3.168611,-9.503453
13.683065,6.858826,1.327515,-4.329707,-0.086819,-3.072211,-9.486689
13.698668,6.950378,0.679016,-2.903010,0.050894,-3.072211,-9.493874
13.714260,6.767273,0.389099,-1.308467,0.132924,-3.287164,-9.417233
13.729853,6.607056,-0.679016,0.591252,0.033530,-3.179389,-9.261557
13.745467,5.119324,-0.640869,1.163457,0.094005,-3.227289,-9.358555
13.761066,3.807068,-0.312805,1.255010,-0.107776,-3.279381,-9.350172
13.776669,3.051758,-0.633240,1.514409,-0.299976,-3.372786,-9.462139
13.792265,3.532410,-0.228882,-0.949885,0.082628,-3.652405,-9.398072
13.807868,1.770020,0.732422,-3.376033,-0.228126,-3.494932,-9.515429
13.823464,-1.174927,0.846863,-3.582026,-0.214354,-3.272794,-9.286704
13.839065,-2.792358,0.289917,-3.765132,-0.008383,-3.111729,-9.392085
13.854669,-4.638672,0.930786,-3.047969,-0.067659,-2.954257,-9.357357
13.870276,-7.743835,0.411987,-0.202205,-0.040117,-2.934498,-9.321432
13.885863,-5.912781,-0.167847,0.759099,0.117356,-2.954855,-9.295686
13.901465,-5.317688,0.038147,-0.164058,0.153880,-3.081791,-9.422622
13.917040,-2.876282,-0.274658,0.873540,-0.273032,-3.011138,-9.502255
13.932628,0.114441,-0.190735,1.338933,-0.107776,-2.823728,-9.336401
13.948230,0.869751,0.305176,-0.347163,-0.019160,-2.766248,-9.125040
13.963841,-2.120972,1.190186,-1.537349,-0.180225,-2.874622,-9.176533
13.979447,-3.471375,0.549316,-2.216365,0.004191,-2.986589,-9.526206
13.995043,-2.906799,0.289917,-2.391841,0.001796,-2.977009,-9.685474
14.010640,-2.319336,1.174927,-2.018001,0.067659,-3.143463,-9.545366
14.026236,-0.976562,-0.038147,-1.461055,-0.145497,-2.963837,-9.582489
14.041841,0.251770,-0.358582,-0.263240,0.096400,-2.873425,-9.490281
14.057425,0.572205,-0.389099,0.370000,0.155676,-2.725532,-9.365740
14.073037,0.602722,-0.358582,0.263188,-0.147892,-2.733915,-9.349573
14.088631,0.366211,-0.526428,0.850652,-0.108973,-2.797383,-9.381308
14.104216,0.053406,-0.404358,0.446294,-0.133522,-2.950664,-9.562131
14.119784,1.251221,-0.549316,-0.598933,-0.074246,-2.947670,-9.535786
14.135372,1.472473,0.999451,-0.080134,0.243094,-2.910547,-9.289099
14.150932,1.426697,-1.075745,-0.095393,-0.164059,-2.802173,-9.620810
14.166522,2.075195,0.137329,0.743840,0.336500,-2.865641,-9.212459
14.182114,1.296997,-0.808716,1.056646,0.102986,-2.806364,-9.339395
14.197714,1.670837,-0.473022,0.614141,-0.255070,-2.796784,-9.569317
14.213320,3.150940,-1.487732,0.858281,0.092208,-2.965034,-9.573507
14.228932,5.111694,0.633240,-0.865962,-0.270038,-2.907554,-9.569915
14.244520,7.164001,-0.022888,-2.903010,-0.199984,-2.799179,-9.558538
14.260130,9.170532,1.823425,-2.292659,-0.268242,-2.763853,-9.469923
14.275723,12.084961,-0.259399,-2.170588,0.308958,-2.612368,-9.490879
14.291325,13.954163,-1.121521,-1.949336,0.136516,-2.693199,-9.501657
14.306915,14.747620,-0.389099,0.530217,0.001796,-2.975812,-9.316043
14.322505,16.464233,-2.235413,3.887151,-0.157473,-3.055446,-9.454954
14.338107,18.447876,-3.349304,5.962346,0.024549,-2.965034,-9.474713
14.353704,19.020081,-3.402710,6.610845,0.195793,-3.034490,-9.325025
14.369329,19.554138,-2.342224,7.045720,0.165256,-3.154241,-9.171743
14.384924,19.470215,-2.288818,6.908391,-0.241897,-3.395539,-9.167552
14.400507,18.234253,-2.098083,7.427190,-0.358055,-3.541635,-9.163960
14.416086,17.845154,-2.273560,6.824468,-0.384999,-3.548820,-9.250779
14.431674,17.974854,-2.426147,6.114934,-0.331710,-3.426075,-9.275328
14.447267,17.837524,-1.754761,4.985784,0.040715,-3.399730,-9.145398
14.462863,18.249512,-1.296997,3.864263,-0.061672,-3.451822,-9.228026
14.478466,18.234253,-1.647949,3.475163,-0.093406,-3.515290,-8.959784
14.494073,19.256592,-3.593445,2.422307,-0.083227,-3.953578,-9.419628
14.509667,19.989014,-1.579285,1.522039,0.025148,-3.990701,-9.524410
14.525264,20.675659,-0.411987,2.201055,0.070653,-4.006868,-9.105880
14.540868,21.408081,-2.082825,1.461003,-0.099393,-4.075126,-8.862785
14.556467,21.057129,-4.661560,-0.240352,0.045505,-4.556525,-8.700523
14.572065,20.484924,-6.454468,-1.384761,-0.104782,-3.996090,-8.298160
14.587668,21.209717,-9.117126,-2.491023,-0.053289,-4.431983,-9.290895
14.603272,17.936707,-8.773804,-3.353145,-0.020358,-4.528982,-8.945414
14.618867,18.768311,-6.439209,-2.834346,-0.096998,-4.248765,-8.995111
14.634469,18.875122,-8.117676,-4.802730,-0.274230,-4.306844,-8.860990
14.650073,17.585754,-9.346008,-6.626155,-0.231119,-4.342170,-8.969963
14.665672,16.494751,-8.262634,-7.320430,-0.415536,-4.566105,-8.966969
14.681274,15.625000,-6.935120,-7.938411,-0.449665,-4.720583,-8.714893
14.696873,15.304565,-8.468628,-8.914973,-0.447869,-4.836143,-8.933438
14.712424,13.389587,-9.033203,-9.395625,-0.462239,-4.808002,-8.823268
14.728008,12.451172,-7.698059,-8.373286,-0.371228,-4.553531,-8.778361
14.743568,12.657166,-8.743286,-7.450130,-0.320933,-4.741540,-8.869372
14.759157,12.229919,-9.590149,-7.946040,-0.267643,-4.863686,-8.659209
14.774732,12.268066,-10.040283,-8.144404,-0.129331,-4.869075,-8.666394
14.790313,11.398315,-11.711121,-8.167293,-0.124541,-4.834946,-8.549038
14.805898,11.901855,-14.602661,-8.266475,0.025148,-5.075047,-8.305345
14.821479,11.611938,-16.754150,-8.419063,-0.207169,-5.252877,-8.847816
14.837068,9.925842,-14.198303,-8.457210,-0.186812,-4.821174,-8.737646
14.852675,13.076782,-15.014648,-8.838679,-0.355062,-4.896617,-8.610111
14.868300,14.076233,-17.593384,-13.195064,-0.264650,-4.916975,-8.689147
14.883901,11.550903,-19.485474,-11.852290,-0.134121,-5.375621,-8.170026
14.899501,13.587952,-20.423889,-12.661006,-0.210762,-4.920568,-8.743034
14.915099,14.175415,-19.996643,-13.141658,-0.608335,-5.543272,-8.877155
14.930696,13.778687,-20.179749,-13.462092,-0.962199,-5.154082,-8.674178
14.946300,13.427734,-14.678955,-12.577083,-0.900527,-4.919370,-8.008363
14.961898,17.044067,-15.678406,-10.929133,-0.464634,-5.091213,-7.934716
14.977478,14.617920,-20.217896,-12.859370,-0.574805,-5.279820,-8.002974
14.993057,14.732361,-22.277832,-14.972713,-1.111289,-5.946235,-7.852686
15.008637,18.348694,-18.898010,-14.392879,-1.326841,-5.572013,-8.122126
15.024215,23.719788,-14.160156,-11.966731,-1.241818,-5.374424,-8.428089
15.039793,26.329041,-11.131287,-9.868648,-1.146017,-5.810916,-8.047281
15.055382,28.968811,-11.680603,-8.144404,-1.134042,-5.378016,-7.823347
15.070942,28.007507,-11.589050,-7.465388,-1.277144,-5.958808,-7.938308
15.086508,30.487061,-11.108398,-5.817439,-1.287323,-5.868995,-8.170625
15.102089,27.862549,-8.323669,-4.985835,-1.677711,-5.419929,-8.780157
15.117650,29.762268,-1.487732,-2.162959,-1.375939,-5.571414,-8.389171
15.133218,30.342102,-0.076294,-1.369502,-0.589774,-6.236032,-7.881426
15.148785,24.497986,-3.524780,-4.650142,-0.965193,-4.933740,-7.952079
15.164384,21.942139,-3.471375,-5.954768,-1.068777,-5.994734,-7.955073
15.179961,20.996094,-2.525330,-6.671931,-0.848436,-6.231242,-8.024529
15.195548,20.378113,-1.983643,-7.068660,-1.040037,-6.491701,-7.880827
15.211122,19.035339,-0.289917,-4.673030,-0.654439,-6.137238,-8.116737
15.226699,15.632629,-2.342224,-3.864314,-0.684976,-6.003715,-7.972437
15.242288,14.205933,-5.493164,-3.704097,-0.712518,-6.112689,-8.086800
15.257866,15.159607,-8.895874,-5.001094,-0.777184,-6.394702,-7.885019
15.273460,16.510010,-8.499146,-4.589107,-1.168171,-5.803133,-7.508402
15.289017,18.600464,-5.912781,-2.391841,-1.066382,-6.336024,-7.723355
15.304608,19.393921,-2.548218,0.331853,-0.613724,-6.528224,-7.843705
15.320182,18.806458,-5.096436,-0.873591,-0.661025,-6.774911,-7.292252
15.335755,20.370483,-7.423401,-3.444697,-0.634081,-6.158194,-7.185074
15.351318,23.857117,-9.140015,-6.450679,-0.930465,-6.400690,-7.122205
15.366898,29.029846,-4.653931,-8.037593,-1.374741,-6.369555,-7.028800
15.382460,35.316467,1.716614,-5.481746,-0.980162,-7.006629,-7.255129
15.398033,36.231995,3.273010,-3.795650,-0.800535,-7.270680,-6.707268
15.413599,35.102844,4.325867,-2.773311,-0.718506,-7.025790,-7.310813
15.429157,37.338257,3.112793,-1.689937,-0.960403,-6.975494,-7.476069
15.444725,38.909912,2.235413,-2.491023,-1.356779,-7.335945,-6.603085
15.460292,42.564392,7.331848,-0.270869,-1.632206,-7.413184,-6.646794
15.475867,46.432495,11.032104,2.651189,-0.959205,-7.819739,-7.045565
15.491428,44.776917,10.391235,1.766179,-0.725691,-7.658674,-6.448007
15.506993,41.641235,8.224487,1.720403,-0.647254,-7.568861,-6.963535
15.522573,42.564392,3.959656,2.490972,-0.422122,-8.087981,-6.652183
15.538145,44.868469,3.311157,3.368352,-1.301693,-7.249125,-6.525846
15.553704,48.614502,6.225586,4.009221,-0.833467,-7.498806,-6.525247
15.569263,48.431396,6.095886,4.634831,-0.758622,-7.973020,-6.580332
15.584830,43.891907,7.217407,2.925847,-0.685574,-7.720345,-6.025885
15.600406,44.326782,7.530212,1.178716,-0.772394,-7.908354,-6.261196
15.615969,43.998718,7.934570,-1.850154,-1.214275,-8.060438,-6.243832
15.631528,44.273376,11.016846,-1.567866,-1.122067,-7.804770,-6.091149
15.647093,42.381287,12.733459,-0.194575,-1.090931,-8.090376,-5.942060
15.662656,36.911011,14.053345,0.423406,-0.864003,-10.970985,-6.255807
15.678231,36.590576,16.075134,1.049016,-0.707728,-7.332951,-6.413280
15.693791,27.122498,14.068604,3.498052,-0.395777,-9.183702,-6.715052
15.709366,25.382996,16.616821,2.788518,-1.375939,-8.191566,-7.259919
15.724927,17.051697,18.295288,3.002141,-0.837658,-7.422764,-7.198846
15.740511,10.391235,18.905640,3.810857,-0.722098,-7.485633,-6.160006
15.756068,10.971069,18.020630,5.298589,-0.576002,-7.392228,-6.736607
15.771639,9.559631,15.609741,4.291509,-0.628693,-7.873627,-6.719243
15.787207,4.638672,13.832092,2.704595,-0.599354,-7.995773,-6.778520
15.802777,-3.410339,13.107300,-2.735164,-0.626298,-8.247250,-5.404976
15.818338,-1.167297,15.525818,-2.681758,-0.537682,-8.295749,-5.188826
15.833899,-1.167297,13.832092,-3.406550,-0.522114,-8.614286,-5.051711
15.849458,-4.882812,12.046814,-4.047420,-0.511935,-8.502918,-4.720599
15.865029,-4.890442,7.606506,-2.552058,-0.423918,-8.492141,-5.045723
15.880592,-3.211975,3.936768,-3.559138,-0.270038,-8.771160,-5.464852
15.896156,-1.449585,1.190186,-3.398921,-0.062869,-8.159832,-5.566041
15.911734,1.144409,0.076294,-1.880671,-0.126337,-8.036488,-5.695971
15.927298,2.365112,0.137329,-0.492122,0.137714,-8.358618,-5.673817
15.942872,2.685547,0.946045,-1.308467,0.076641,-8.447234,-5.725909
15.958432,4.203796,-0.343323,-5.069758,0.273631,-8.598719,-5.543289
15.973995,5.706787,-4.272461,-7.221248,-0.093406,-8.431666,-5.213974
15.989575,8.216858,-6.256104,-6.786372,-0.378413,-8.435259,-5.376236
16.005139,7.041931,-5.859375,-6.153132,-0.181423,-8.369396,-5.463654
16.020713,6.805420,-7.804871,-5.184199,-0.388592,-8.508905,-5.406773
16.036291,5.584717,-5.317688,-4.436519,-0.216151,-8.605305,-5.158888
16.051863,2.281189,-5.462646,-4.299190,-0.319136,-8.426277,-5.134339
16.067429,3.257751,-6.866455,-4.001643,-0.445474,-8.457413,-5.374440
16.083064,3.761292,-5.905151,-5.107905,-0.456850,-8.370593,-5.427729
16.098627,2.922058,-7.431030,-6.046321,-0.565823,-8.477172,-5.403779
16.114228,2.952576,-5.203247,-5.786922,-0.456251,-8.413105,-5.406174
16.129818,2.319336,-4.318237,-5.970027,-0.238903,-8.696915,-5.264269
16.145404,3.593445,-4.562378,-5.672481,-0.303569,-8.702304,-5.393600
16.160989,3.913879,-4.028320,-5.695369,-0.249082,-8.576565,-5.061890
16.176571,1.457214,-3.242493,-4.833247,-0.264051,-8.602910,-4.995428
16.192152,0.511169,-2.914429,-3.154780,-0.353265,-8.741821,-5.090031
16.207775,-0.831604,-1.907349,-2.956416,-0.256866,-8.231682,-5.255886
16.223353,-0.885010,-2.479553,-2.246882,-0.338895,-8.448431,-5.103204
16.238934,-1.243591,-3.097534,-1.361873,-0.270038,-8.548424,-5.270257
16.254527,-3.616333,-2.189636,-1.750972,-0.277223,-8.517288,-5.276244
16.270116,-5.355835,-0.503540,-1.186396,-0.180225,-8.810080,-5.167271
16.285710,-6.835938,0.000000,-0.988032,-0.199385,-8.846603,-5.156493
16.301301,-6.706238,0.747681,-0.644709,-0.104183,-8.553812,-5.359471
16.316883,-6.538391,-0.976562,-1.400020,-0.034728,-8.427475,-5.495987
16.332467,-5.172729,-2.212524,-4.604365,-0.434696,-7.970026,-5.501975
16.348048,-5.546570,-1.953125,-1.132991,-0.189805,-8.525072,-5.413359
16.363627,-2.410889,0.419617,-0.370051,0.056283,-8.317903,-5.515147
16.379211,-0.511169,-0.617981,0.118230,-0.123942,-8.246651,-5.222356
16.394799,-0.686646,-0.503540,0.087712,-0.235311,-8.955577,-5.355279
16.410424,-0.343323,-1.235962,-0.286128,-0.153281,-8.572373,-5.533709
16.426090,-0.999451,-0.999451,-0.583674,-0.330513,-8.356223,-5.565443
16.441699,-1.632690,-0.717163,-0.301387,-0.337698,-8.488548,-5.395995
16.457321,-2.738953,-0.114441,0.293706,-0.241298,-8.537646,-5.284626
16.472927,-3.677368,0.305176,0.713323,-0.300575,-8.509504,-5.324144
16.488508,-4.058838,0.671387,1.598333,-0.214354,-8.456215,-5.478623
16.504093,-3.982544,0.457764,1.659368,-0.116757,-8.383167,-5.482215
16.519674,-3.723145,0.251770,0.911687,-0.407153,-8.380174,-5.553467
16.535259,-2.746582,-0.938416,-0.568416,-0.172441,-8.746612,-5.372643
16.550822,-1.296997,-3.189087,-4.306819,-0.102387,-8.258027,-5.272053
16.566417,-4.051208,-4.432678,-3.612544,-0.249681,-8.662786,-5.154098
16.582033,-5.958557,-4.051208,-5.214717,-0.158071,-8.422685,-5.522332
16.597652,-7.514954,-3.654480,-5.054500,-0.132924,-8.175998,-5.609152
16.613233,-8.552551,-2.410889,-1.720454,-0.375419,-8.207732,-5.518141
16.628839,-9.292603,-1.098633,-1.834895,-0.230521,-8.242459,-5.695971
16.644407,-8.079529,-0.480652,-1.026179,-0.055684,-8.258027,-5.734292
16.659991,-7.034302,-0.503540,-0.721003,-0.173040,-8.274793,-5.717526
16.675573,-5.737305,-0.297546,0.026677,-0.209564,-8.201145,-5.773211
16.691159,-4.730225,-0.198364,0.583623,-0.241298,-8.148456,-5.740878
16.706752,-4.020691,0.236511,0.896428,-0.219144,-8.110135,-5.767822
16.722333,-2.586365,-0.183105,0.324224,-0.246088,-8.089178,-5.848654
16.737923,-3.875732,-0.267029,-0.736262,-0.309556,-8.078401,-5.800154
16.753504,-1.472473,-0.328064,-1.216914,-0.243693,-8.151449,-5.803148
16.769091,-0.930786,-0.564575,-1.346614,-0.186812,-8.183782,-5.769618
16.784660,-0.282288,-0.495911,-0.736262,-0.157473,-8.301138,-5.757643
16.800244,0.717163,-0.495911,-0.003840,-0.198188,-8.312514,-5.582807
16.815802,1.358032,-0.175476,0.377629,-0.200583,-8.284372,-5.682199
16.831382,1.174927,-0.038147,0.316594,-0.201182,-8.268805,-5.675613
16.846964,1.037598,-0.282288,0.186895,-0.211360,-8.247250,-5.676811
16.862550,-0.160217,-0.183105,-0.545527,-0.204774,-8.410111,-5.781593
16.878159,1.388550,-0.816345,-0.766780,-0.107776,-8.025710,-5.804945
16.893759,2.059937,-0.251770,-0.072505,-0.710123,-8.245454,-5.816321
16.909355,2.792358,0.450134,-0.309016,0.079036,-8.240065,-5.439704
16.924941,1.266479,-1.098633,-0.988032,0.060474,-8.407117,-5.531912
16.940559,-0.366211,-0.595093,0.591252,-0.081431,-8.454419,-5.558856
16.956156,-2.532959,-0.312805,1.613591,-0.030536,-8.458012,-5.630707
16.971748,-2.807617,0.648499,2.384160,-0.237107,-8.399334,-5.658848
16.987329,-4.379272,0.297546,1.811956,-0.396376,-8.135283,-5.575023
17.002935,-5.012512,0.297546,0.110601,-0.604742,-8.077204,-5.704952
17.018508,-5.500793,-0.656128,-0.064875,-0.141905,-8.109536,-5.933677
17.034081,-4.295349,-0.770569,-1.384761,-0.050295,-8.119715,-5.728304
17.049660,-3.562927,-1.434326,-0.919368,-0.188009,-8.357421,-5.770216
17.065234,-2.090454,-0.686646,-0.370051,-0.030536,-8.220305,-5.851048
17.080827,-2.632141,-0.236511,0.240300,-0.172441,-8.353230,-5.680403
17.096407,-3.227234,0.106812,0.080083,-0.280217,-8.243657,-5.686391
17.111979,-4.486084,-0.961304,-0.469233,-0.222737,-8.320298,-5.706748
17.127575,-5.699158,-0.488281,-0.675227,-0.362845,-8.238269,-5.667830
17.143147,-5.828857,-0.610352,-0.629451,-0.269440,-8.090975,-5.804945
17.158705,-5.676270,-0.152588,-0.370051,-0.135917,-8.150850,-5.908529
17.174296,-5.310059,-0.106812,-0.041987,-0.210163,-8.154443,-5.864820
17.189864,-4.936218,-0.198364,0.682805,-0.208965,-8.140672,-5.831290
17.205424,-4.898071,-0.144958,0.835393,-0.210163,-8.108338,-5.863623
17.221010,-5.630493,-1.945496,1.110051,-0.254471,-8.042476,-5.897751
17.236574,-5.760193,-0.221252,0.644658,-0.228724,-8.044271,-6.003132
17.252152,-5.065918,-1.922607,0.347112,-0.185015,-8.116122,-6.038459
17.267723,-3.242493,-0.396729,-0.850703,-0.286804,-8.074808,-5.982176
17.283285,-2.273560,-0.747681,-1.209285,-0.204774,-7.995773,-5.979781
17.298841,-2.624512,-0.732422,-1.422908,-0.173040,-7.988588,-5.891764
17.314315,-3.356934,-0.541687,-0.621821,-0.178429,-7.977211,-5.907331
17.329774,-3.608704,-0.335693,0.087712,-0.062271,-8.074808,-6.031274
17.345283,-3.318787,-0.442505,0.423406,-0.231718,-7.974816,-5.998941
17.360867,-2.456665,0.045776,0.469182,-0.279619,-8.096962,-5.979781
17.376456,-2.059937,-0.099182,0.240300,-0.214354,-8.014334,-5.977984
17.392027,-2.571106,0.122070,0.156377,-0.185015,-7.955057,-5.972596
17.407621,-2.716064,-0.007629,0.164006,-0.225132,-7.984995,-6.027082
17.423202,-2.189636,-0.350952,0.278447,-0.267045,-8.019124,-6.066001
17.438781,-1.922607,-0.381470,-0.156428,-0.169448,-8.007149,-5.979781
17.454376,-1.792908,-0.663757,-0.614192,-0.208367,-7.971823,-6.010916
17.469975,-1.960754,-0.473022,-0.431086,-0.211959,-7.986792,-6.046243
17.485553,-1.747131,-0.205994,-0.019099,-0.228126,-7.993378,-6.070193
17.501123,-1.586914,-0.183105,0.560735,-0.131127,-8.001162,-6.076180
17.516697,-0.732422,-0.183105,0.484441,-0.265248,-8.027507,-6.051631
17.532292,-0.610352,-0.282288,0.553105,-0.320933,-8.025710,-6.008521
17.547889,-0.984192,-0.274658,0.164006,-0.296384,-7.993378,-6.064205
17.563470,-1.457214,-0.236511,-0.202205,-0.225132,-8.025112,-6.042051
17.579063,-1.708984,-0.511169,-0.392939,-0.193997,-8.014933,-6.011515
17.594648,-1.831055,-0.366211,-0.347163,-0.163460,-8.003556,-6.031873
17.610234,-1.808167,-0.488281,-0.339534,-0.177231,-7.993977,-6.039656
17.625808,-2.082825,-0.335693,-0.148799,-0.172441,-8.037685,-6.034866
17.641379,-1.976013,-0.320435,-0.026729,-0.207768,-8.040081,-6.057020
17.656978,-2.075195,-0.053406,0.225042,-0.215552,-8.028106,-6.018700
17.672573,-2.220154,0.114441,0.469182,-0.188009,-7.970026,-6.036064
17.688151,-2.494812,-0.076294,0.293706,-0.174836,-7.914941,-6.042051
17.703753,-2.670288,-0.122070,0.011418,-0.154479,-7.838899,-6.165395
17.719340,-2.365112,-0.602722,-0.370051,-0.235909,-7.935897,-6.308497
17.734931,-1.396179,-0.160217,-0.209834,-0.092807,-7.870034,-6.195333
17.750514,-0.999451,-0.457764,-0.087764,-0.189207,-7.881411,-6.190543
17.766104,-0.366211,-0.251770,0.240300,-0.301772,-7.846084,-6.219882
17.781699,0.175476,-0.129700,0.377629,-0.243094,-7.880812,-6.045644
17.797293,0.862122,-0.282288,0.255559,-0.238304,-7.902966,-6.130068
17.812883,0.892639,-0.137329,0.354741,-0.170046,-7.959847,-6.090550
17.828473,0.900269,-0.190735,0.575994,-0.175435,-7.937095,-6.112106
17.844059,0.778198,-0.076294,0.492070,-0.234113,-7.971823,-6.083365
17.859655,0.511169,-0.259399,-0.026729,-0.304167,-8.008945,-6.077977
17.875256,0.473022,-0.244141,-0.255610,-0.229323,-7.959847,-6.080372
17.890840,0.343323,-0.518799,-0.209834,-0.239502,-7.978409,-6.073785
17.906442,0.404358,-0.106812,0.026677,-0.171244,-7.946076,-6.081569
17.922042,0.366211,-0.122070,0.225042,-0.237107,-7.871232,-6.137253
17.937637,0.526428,-0.198364,0.408147,-0.242496,-7.883207,-6.215092
17.953236,1.113892,-0.076294,0.141118,-0.208367,-7.887398,-6.197129
17.968838,1.586914,-0.099182,-0.041987,-0.237107,-7.889194,-6.174376
17.984426,2.067566,-0.335693,-0.103022,-0.301174,-7.868238,-6.147432
18.000009,2.388000,-0.068665,-0.072505,-0.196392,-7.905960,-6.121087
18.015612,2.754211,-0.335693,0.019048,-0.234113,-7.921527,-6.125877
18.031215,3.402710,-0.175476,-0.003840,-0.217348,-7.910749,-6.149827
18.046841,3.646851,-0.137329,-0.156428,-0.258662,-7.929311,-6.110908
18.062446,4.196167,-0.007629,0.087712,-0.267045,-7.933502,-6.094742
18.078030,4.371643,-0.099182,0.102971,-0.213755,-7.961045,-6.085162
18.093631,4.821777,-0.122070,-0.011470,-0.256267,-7.941885,-6.104322
18.109230,5.081177,-0.282288,-0.362422,-0.219743,-7.977211,-6.068397
18.124842,5.119324,-0.411987,-0.408198,-0.180225,-8.010741,-6.034267
18.140458,5.661011,-0.373840,-0.537898,-0.235311,-7.977810,-6.021694
18.156062,5.889893,-0.099182,-0.164058,-0.195194,-8.013137,-6.001935
18.171669,6.095886,-0.160217,0.019048,-0.191602,-8.011340,-5.987565
18.187269,6.309509,-0.236511,-0.011470,-0.195793,-8.052654,-5.983972
18.202870,6.454468,-0.114441,-0.034358,-0.219743,-8.066425,-5.974392
18.218457,6.530762,-0.190735,-0.019099,-0.258662,-8.046068,-5.967207
18.234063,6.721497,-0.205994,-0.164058,-0.202978,-8.064031,-5.943856
18.249669,6.996155,-0.343323,-0.354792,-0.223934,-8.023914,-5.934874
18.265268,7.301331,-0.427246,-0.507380,-0.229323,-8.071815,-5.960621
18.280867,7.736206,-0.343323,-0.568416,-0.240699,-8.080197,-5.928887
18.296469,8.300781,-0.358582,-0.568416,-0.232916,-8.111332,-5.866616
18.312081,8.956909,-0.198364,-0.331904,-0.164059,-8.116721,-5.872604
18.327690,9.735107,-0.244141,-0.209834,-0.155078,-8.125104,-5.869610
18.343303,10.101318,-1.907349,-0.278499,-0.184417,-8.145461,-5.821111
18.358906,10.398865,-0.091553,-0.301387,-0.246687,-8.184979,-5.796562
18.374508,12.161255,0.305176,-1.773860,-0.008383,-8.216114,-5.686391
18.390108,11.428833,-0.366211,-1.239802,-0.386796,-8.372390,-5.757044
18.405710,11.383057,-0.366211,-2.361323,-0.135917,-8.422086,-5.635497
18.421302,10.185242,-1.144409,-3.551509,-0.229922,-8.503517,-5.482215
18.436899,9.407043,-0.488281,-4.077937,-0.323328,-8.513097,-5.608553
18.452491,9.162903,-0.686646,-5.107905,-0.294587,-8.405321,-5.455870
18.468092,9.552002,-0.961304,-4.650142,-0.185614,-8.322693,-5.571430
18.483704,9.117126,-0.808716,-4.940059,0.008383,-8.420290,-5.572029
18.499315,8.552551,-1.190186,-4.848506,-0.118553,-8.185578,-5.523530
18.514895,8.209229,-1.922607,-4.344966,-0.176034,-8.400531,-5.519339
18.530494,7.392883,-1.785278,-4.489924,-0.138911,-8.396938,-5.457666
18.546094,6.484985,-1.564026,-4.749324,-0.121547,-8.386760,-5.437908
18.561700,5.805969,-2.082825,-5.825068,-0.065863,-8.399334,-5.515746
18.577303,5.958557,-2.944946,-6.664302,-0.044907,-8.381371,-5.401982
18.592904,6.820679,-2.967834,-6.656672,-0.061672,-8.596324,-5.313367
18.608504,8.239746,-2.685547,-5.176570,0.037123,-8.438851,-5.206190
18.624102,7.331848,-1.663208,-3.559138,0.017963,-8.505313,-5.098413
18.639684,5.210876,-1.075745,-2.872493,-0.058079,-8.625663,-5.174456
18.655272,3.089905,-1.518250,-2.094295,-0.063468,-8.614885,-5.109790
18.670871,0.930786,-1.663208,-0.911738,0.020358,-8.805888,-5.179245
18.686471,-1.831055,-0.358582,0.614141,-0.091011,-8.696915,-5.124160
18.702073,-4.043579,0.885010,2.338384,0.040117,-8.775950,-5.051112
18.717671,-4.821777,0.801086,3.299687,0.083227,-8.623867,-5.218763
18.733273,-6.477356,1.426697,3.604863,0.008981,-8.502918,-5.318756
18.748875,-7.743835,1.106262,2.490972,-0.083227,-8.141270,-5.453475
18.764474,-7.583618,0.022888,1.277898,-0.196990,-8.097561,-5.728903
18.780090,-6.439209,-0.289917,-0.019099,-0.183219,-8.007748,-5.734292
18.795683,-3.059387,-1.083374,-2.376582,-0.119751,-8.180189,-5.936670
18.811293,1.220703,-1.052856,-3.658320,-0.082628,-8.265811,-5.681002
18.826905,4.577637,-0.350952,-6.656672,-0.086221,-8.047266,-5.605559
18.842482,3.646851,-2.113342,-10.059382,-0.028740,-8.555010,-5.407970
18.858088,2.738953,-4.974365,-10.433223,-0.656235,-8.853189,-5.321749
18.873694,6.942749,-5.577087,-8.632686,0.091011,-8.441246,-5.764828
18.889302,9.223938,-2.937317,-6.969478,0.613125,-8.396339,-5.635497
18.904914,10.185242,-1.541138,-6.031062,0.010778,-8.507709,-5.210381
18.920524,9.391785,-2.243042,-5.878474,0.176034,-8.685538,-5.166073
18.936137,8.659363,-2.586365,-5.367305,0.150886,-8.526270,-5.318756
18.951750,5.203247,-0.892639,-4.428889,0.143701,-8.508905,-5.232535
18.967373,4.249573,-1.274109,-4.589107,0.253872,-8.392148,-5.325941
18.982989,4.524231,-1.678467,-4.428889,0.173639,-8.419691,-5.495388
18.998571,5.905151,-1.098633,-3.765132,0.364043,-8.553812,-5.343305
19.014157,7.804871,-1.670837,-3.940608,0.178429,-8.486752,-5.352286
19.029761,9.567261,-1.571655,-2.925899,0.111368,-8.659193,-5.234331
19.045326,10.086060,-1.274109,-3.551509,0.103585,-8.695717,-5.187628
19.060907,10.307312,-1.609802,-2.773311,-0.071252,-8.772358,-5.182240
19.076474,9.086609,-0.701904,-1.766230,-0.256267,-8.880134,-4.931361
19.092074,7.072449,-0.251770,-1.941707,0.098795,-8.822055,-4.839153
19.107663,4.798889,0.015259,-1.430537,0.178429,-8.781938,-4.814604
19.123250,2.250671,-0.221252,-0.698115,0.340692,-8.875942,-4.792450
19.138844,-0.114441,0.236511,1.140569,0.216749,-8.814271,-4.860708
19.154458,-2.738953,1.411438,2.925847,0.208965,-8.788525,-4.850529
19.170062,-5.279541,1.533508,4.108403,0.181423,-8.811276,-4.939744
19.185666,-6.637573,1.968384,4.566167,0.087418,-8.698711,-5.005607
19.201260,-8.354187,1.487732,4.718755,0.047302,-8.685538,-4.982854
19.216852,-10.025024,1.106262,4.474614,0.085622,-8.679551,-5.209183
19.232464,-10.375977,1.121521,4.154180,0.150886,-8.505313,-5.288219
19.248067,-10.131836,1.754761,5.306218,0.108375,-8.634645,-5.296602
19.263680,-9.384155,2.182007,5.374883,0.258063,-8.416698,-5.311571
19.279278,-8.827209,1.251221,4.352544,0.088017,-8.475974,-5.446889
19.294877,-7.698059,1.213074,3.467534,-0.050894,-8.419691,-5.483413
19.310471,-5.676270,1.373291,3.177617,0.086221,-8.632848,-5.468444
19.326070,-4.035950,0.938416,2.155278,0.035327,-8.424481,-5.435513
19.341670,-4.142761,-0.267029,1.461003,0.126337,-8.462802,-5.345699
19.357260,-4.783630,-0.076294,0.659917,-0.152682,-8.301737,-5.404976
19.372852,-5.393982,-0.190735,0.484441,-0.153281,-8.339458,-5.412760
19.388470,-5.317688,-0.411987,-0.400569,0.190404,-8.357421,-5.576220
19.404067,-4.844666,-0.991821,-1.453425,0.001198,-8.327483,-5.607355
19.419677,-3.067017,-1.190186,-1.804377,0.001796,-8.316107,-5.667830
19.435277,-1.487732,-0.968933,-1.750972,0.044907,-8.133487,-5.703156
19.450878,-0.274658,-1.228333,-2.117183,0.028141,-8.133487,-5.725909
19.466477,1.403809,-1.319885,-2.201106,0.035925,-8.158634,-5.777402
19.482075,4.470825,-1.419067,-2.231624,0.049697,-8.307125,-5.771414
19.497671,7.720947,-1.411438,-2.285029,0.080233,-8.307724,-5.704354
19.513281,10.169983,-1.441956,-2.925899,0.091011,-8.329878,-5.588794
19.528882,10.971069,-1.579285,-3.803279,0.057480,-8.437055,-5.528918
19.544485,11.238098,-1.838684,-4.596736,0.305365,-8.553213,-5.154696
19.560094,10.650635,-2.166748,-5.008723,0.134121,-8.690928,-5.149308
19.575701,10.398865,-1.731873,-4.573848,0.076641,-8.650810,-5.161882
19.591301,9.262085,-1.586914,-3.643062,0.081431,-8.688532,-5.053507
19.606901,6.950378,-1.472473,-3.719356,0.113763,-8.607700,-5.041532
19.622499,4.455566,-1.937866,-4.573848,0.249082,-8.219109,-5.066679
19.638097,2.365112,-2.517700,-4.695918,-0.006586,-8.342452,-5.221757
19.653683,1.960754,-2.143860,-3.841426,0.246687,-8.590336,-5.369650
19.669276,2.418518,-1.884460,-2.895381,0.341290,-8.540041,-5.340311
19.684863,3.501892,-1.373291,-2.712276,0.430505,-8.612491,-5.339113
19.700464,5.226135,-2.113342,-2.887752,0.149090,-8.508905,-5.278639
19.716072,5.958557,-1.365662,-2.544429,-0.130529,-8.559800,-5.245109
19.731670,6.240845,-1.205444,-2.208735,0.029938,-8.480165,-5.430124
19.747271,6.500244,-1.312256,-3.139522,0.183219,-8.635242,-5.267861
19.762872,7.041931,-1.777649,-3.086116,0.042512,-8.464598,-5.233732
19.778476,7.400513,-1.319885,-3.444697,0.210163,-8.703501,-5.090630
19.794074,8.293152,-1.281738,-3.467586,0.250280,-8.610095,-5.026563
19.809664,8.369446,-1.342773,-3.383662,0.391586,-8.686736,-5.091228
19.825245,8.155823,-0.839233,-2.445247,0.302371,-8.705297,-4.971478
19.840830,7.415771,-0.534058,-1.560237,0.326920,-8.797505,-4.877473
19.856419,5.889893,1.884460,-0.217463,0.285007,-8.815468,-4.778080
19.872013,3.463745,0.183105,0.606511,0.240101,-8.819060,-4.697248
19.887614,0.244141,0.419617,1.255010,0.150886,-8.888516,-4.645156
19.903214,-3.112793,0.404358,1.544927,0.261057,-8.910071,-4.746346
19.918838,-5.798340,0.556946,1.316045,0.288600,-8.789123,-4.882862
19.934437,-7.019043,0.747681,1.644109,0.219144,-8.707093,-4.998422
19.950030,-7.583618,0.907898,2.323125,0.256267,-8.713081,-5.010397
19.965626,-7.408142,3.501892,3.482793,0.196990,-8.599916,-5.097815
19.981236,-6.378174,3.845215,4.421208,0.276625,-8.725655,-5.107994
19.996842,-5.523682,1.701355,5.184148,0.170645,-8.594527,-5.196609
20.012461,-5.874634,2.067566,5.733464,0.226329,-8.554411,-5.165474
20.028066,-6.828308,1.815796,4.238103,0.267643,-8.419092,-5.206190
20.043667,-7.331848,0.892639,2.506230,0.080832,-8.535850,-5.336119
20.059259,-6.698608,0.259399,2.902959,-0.081431,-8.542436,-5.345101
20.074866,-5.149841,0.793457,2.620671,0.061073,-8.595725,-5.387013
20.090467,-3.387451,0.747681,2.048467,0.225132,-8.507709,-5.302589
20.106065,-1.647949,0.526428,1.438115,0.189805,-8.512498,-5.303787
20.121664,-1.129150,0.205994,1.163457,0.017364,-8.470585,-5.241516
20.137257,-1.060486,0.213623,1.377080,0.094603,-8.528665,-5.293009
20.152852,-1.358032,0.579834,1.712773,0.164658,-8.532856,-5.276244
20.168466,-1.373291,0.579834,1.628850,0.272433,-8.537646,-5.181641
20.184059,-0.923157,0.282288,1.613591,0.242496,-8.502319,-5.248102
20.199664,-1.327515,0.236511,1.148198,0.046703,-8.514894,-5.286423
20.215260,-1.602173,0.244141,1.010869,0.134121,-8.499326,-5.238523
20.230867,-2.029419,0.175476,1.201604,0.058678,-8.545429,-5.272651
20.246476,-1.731873,0.114441,1.148198,0.173639,-8.558602,-5.261275
20.262084,-1.274109,0.114441,1.720403,0.131127,-8.604108,-5.306181
20.277693,-1.304626,0.297546,1.842473,0.097597,-8.597522,-5.240319
20.293301,-1.716614,0.099182,1.872991,0.071851,-8.606503,-5.239720
20.308906,-2.586365,0.602722,2.490972,0.115560,-8.607700,-5.206789
20.324502,-3.173828,0.938416,3.246282,0.148491,-8.710686,-5.194813
20.340100,-4.074097,1.602173,3.879521,0.169448,-8.528066,-5.216368
20.355684,-4.959106,1.274109,3.749822,0.140707,-8.449030,-5.259479
20.371298,-6.233215,1.144409,3.643010,-0.010778,-8.556208,-5.281633
20.386907,-6.668091,0.831604,2.933476,-0.044308,-8.475974,-5.234930
20.402509,-7.385254,0.816345,2.536748,0.009580,-8.372989,-5.346298
20.418095,-7.514954,-0.381470,1.842473,0.094005,-8.481961,-5.343305
20.433702,-8.193970,-0.495911,1.316045,0.148491,-8.487949,-5.355279
20.449303,-9.071350,-0.564575,1.361821,0.055085,-8.477771,-5.454673
20.464902,-9.101868,0.228882,1.567815,-0.068857,-8.486153,-5.491197
20.480505,-8.255005,0.076294,1.224492,0.038919,-8.467591,-5.536104
20.496108,-7.514954,-0.122070,0.675176,0.071252,-8.413704,-5.544486
20.511710,-7.751465,-0.297546,0.545476,-0.020358,-8.368198,-5.503172
20.527319,-8.621216,0.030518,0.675176,-0.064666,-8.346045,-5.549276
20.542926,-9.300232,0.335693,1.064275,0.089813,-8.384963,-5.558856
20.558521,-8.972168,-0.442505,0.278447,0.068258,-8.328082,-5.655855
20.574105,-8.789062,-0.312805,-0.141169,0.011975,-8.359816,-5.651064
20.589698,-8.346558,-0.236511,-0.293757,0.013173,-8.248447,-5.627713
20.605303,-8.705139,-0.358582,-0.202205,0.031734,-8.149652,-5.676811
20.620903,-9.086609,-0.236511,-0.217463,0.094005,-8.217911,-5.713934
20.636502,-9.277344,-0.427246,-0.057246,0.070653,-8.228688,-5.738482
20.652102,-9.246826,-0.297546,0.041936,0.029938,-8.246052,-5.756445
20.667703,-8.773804,-0.244141,0.011418,0.017364,-8.214917,-5.766624
20.683303,-8.842468,-0.236511,-0.003840,0.053289,-8.168214,-5.776204
20.698901,-8.995056,-0.167847,0.125859,0.076641,-8.167017,-5.807938
20.714504,-9.338379,-0.015259,0.530217,0.070653,-8.159233,-5.817518
20.730102,-9.368896,0.038147,0.499700,0.063468,-8.187973,-5.876795
20.745705,-9.277344,-0.129700,0.225042,0.013173,-8.137079,-5.880388
20.761316,-9.368896,-0.175476,-0.026729,0.010179,-8.123307,-5.873801
20.776924,-9.765625,-0.297546,-0.194575,0.011975,-8.068222,-5.956429
20.792526,-10.078430,-0.183105,-0.225093,0.055085,-8.006550,-6.003132
20.808132,-10.437012,-0.305176,-0.041987,0.033530,-8.042476,-5.994750
20.823729,-10.169983,-0.381470,0.057195,0.009580,-8.049661,-6.052829
20.839328,-9.597778,-0.305176,0.095342,0.005389,-8.026908,-6.039656
20.854928,-9.483337,-0.259399,0.141118,0.080233,-7.995773,-6.031873
20.870550,-9.574890,-0.160217,-0.164058,0.056882,-7.935897,-6.095341
20.886151,-9.956360,-0.328064,-0.194575,0.026944,-7.920330,-6.118692
20.901758,-9.925842,-0.602722,-0.179316,0.020956,-7.898775,-6.156414
20.917363,-9.880066,-0.289917,-0.095393,0.050295,-7.898775,-6.172580
20.932961,-9.811401,-0.427246,0.041936,0.063468,-7.859855,-6.211499
20.948555,-9.674072,-0.160217,0.171636,0.028740,-7.847880,-6.276165
20.964157,-9.231567,-0.274658,0.263188,0.013173,-7.861053,-6.257603
20.979757,-8.949280,-0.091553,0.293706,0.049098,-7.822134,-6.277961
20.995363,-8.972168,-0.053406,0.171636,0.047900,-7.801178,-6.270177
21.010960,-9.178162,-0.167847,0.186895,0.060474,-7.734715,-6.306102
21.026556,-9.353638,-0.343323,0.133489,0.042512,-7.731722,-6.478544
21.042151,-9.353638,-0.366211,0.041936,0.026345,-7.737111,-6.411483
21.057755,-9.048462,-0.282288,-0.148799,0.005389,-7.698192,-6.400107
21.073356,-8.689880,-0.267029,-0.179316,0.008383,-7.701784,-6.395916
21.088954,-8.262634,-0.297546,0.026677,0.062271,-7.658075,-6.439625
21.104556,-8.354187,-0.244141,-0.049617,0.041314,-7.622149,-6.480340
21.120159,-8.224487,-0.350952,-0.247981,0.037123,-7.628137,-6.637214
21.135757,-8.033752,-0.335693,-0.293757,0.034129,-7.602990,-6.490519
21.151364,-7.560730,-0.396729,-0.309016,0.037123,-7.604786,-6.546802
21.166965,-7.324219,-0.282288,-0.324275,0.075443,-7.555089,-6.545604
21.182562,-7.102966,-0.274658,0.011418,0.038320,-7.543114,-6.594702
21.198159,-6.683350,-0.061035,0.354741,0.033530,-7.534731,-6.603085
21.213754,-6.072998,-0.083923,0.362371,0.002994,-7.531139,-6.600091
21.229372,-3.921509,-0.053406,0.423406,0.021555,-7.517966,-6.595301
21.244976,-5.760193,-0.144958,0.461553,0.027543,-7.487430,-6.593504
21.260578,-5.981445,-0.175476,0.560735,0.061073,-7.455696,-6.608473
21.276167,-5.584717,-0.160217,0.385259,0.030536,-7.467072,-6.724632
21.291764,-5.233765,-0.160217,0.019048,0.032333,-7.479047,-6.706669
21.307372,-4.539490,-0.343323,-0.118281,0.001198,-7.439529,-6.683318
21.322977,-4.112244,-0.274658,-0.164058,0.019160,-7.440727,-6.679127
21.338576,-3.623962,-0.144958,-0.232722,0.041314,-7.392228,-6.722237
21.354178,-3.395081,-0.244141,-0.225093,0.032932,-7.372469,-6.718046
21.369783,-3.089905,-0.236511,-0.164058,0.039518,-7.400610,-6.738403
21.385370,-2.822876,-0.328064,-0.125911,0.134720,-7.479047,-6.773730
21.400969,-2.273560,-0.221252,-0.118281,0.086221,-7.405999,-6.754570
21.416569,-1.663208,-0.251770,-0.148799,0.011975,-7.361093,-6.787501
21.432172,-1.167297,-0.114441,-0.019099,0.019160,-7.382648,-6.753372
21.447781,-1.060486,-0.061035,0.141118,0.039518,-7.371271,-6.744989
21.463386,-0.549316,-0.152588,0.034307,0.044907,-7.361691,-6.731218
21.478990,-0.198364,-0.259399,0.125859,0.020358,-7.367080,-6.777921
21.494599,0.465393,-0.297546,0.041936,0.037722,-7.354506,-6.727626
21.510210,0.793457,-0.617981,0.324224,0.096998,-7.303612,-6.684515
21.525811,0.152588,-0.862122,0.682805,0.062869,-7.332951,-6.725830
21.541409,-0.694275,-0.114441,1.415227,0.033530,-7.367080,-6.709663
21.557014,0.022888,-0.030518,1.850103,0.027543,-7.452702,-6.752175
21.572614,1.426697,-0.579834,1.758550,-0.144899,-7.422165,-6.846179
21.588213,2.189636,0.076294,1.575444,0.010179,-7.407197,-6.803069
21.603819,2.922058,0.228882,1.705144,-0.017364,-7.424561,-6.712058
21.619421,3.143311,-0.129700,1.216863,0.005988,-7.379055,-6.668948
21.635022,3.028870,-0.488281,0.659917,-0.140109,-7.361691,-6.672540
21.650621,2.311707,-0.419617,0.370000,-0.077239,-7.447313,-6.727027
21.666235,2.410889,-0.251770,0.240300,-0.152084,-7.478448,-6.704873
21.681844,3.395081,-0.167847,-0.034358,0.010778,-7.538923,-6.680324
21.697462,4.257202,-0.312805,-0.125911,0.141306,-7.474856,-6.666553
21.713064,4.028320,-0.183105,-0.003840,0.014370,-7.429949,-6.628232
21.728674,3.128052,-0.320435,0.125859,0.054487,-7.453899,-6.646794
21.744274,2.716064,-0.396729,-0.034358,-0.129331,-7.483239,-6.662960
21.759875,3.059387,-0.320435,0.156377,0.150886,-7.535929,-6.669547
21.775475,3.517151,-0.221252,0.026677,0.001796,-7.532336,-6.637214
21.791073,3.585815,-0.068665,0.019048,0.009580,-7.494016,-6.611467
21.806698,3.326416,-0.236511,0.194524,-0.144300,-7.486831,-6.584523
21.822297,2.838135,-0.167847,0.377629,0.019160,-7.528145,-6.605480
21.837902,2.922058,-0.190735,0.255559,0.001198,-7.569459,-6.611467
21.853498,3.242493,-0.259399,0.240300,0.000599,-7.551497,-6.617455
21.869098,3.326416,-0.335693,0.087712,0.006586,-7.526349,-6.586319
21.884684,3.166199,-0.198364,-0.103022,-0.007185,-7.545509,-6.545604
21.900287,2.952576,-0.404358,-0.110652,0.016765,-7.556885,-6.572548
21.915897,2.967834,-0.236511,-0.080134,-0.002395,-7.598199,-6.571351
21.931492,3.189087,-0.465393,-0.240352,-0.028740,-7.581434,-6.552191
21.947092,3.105164,-0.137329,-0.156428,0.005988,-7.582033,-6.558777
21.962692,2.876282,-0.434875,-0.263240,0.010179,-7.571854,-6.553987
21.978296,2.571106,-0.396729,-0.202205,-0.007784,-7.605384,-6.530635
21.993883,2.540588,-0.419617,-0.072505,0.048499,-7.591014,-6.522851
22.009477,2.319336,-0.183105,0.148748,0.011376,-7.601792,-6.512673
22.025075,2.372742,-0.289917,0.217412,-0.007784,-7.598798,-6.498302
22.040669,2.021790,-0.144958,0.034307,-0.001198,-7.597002,-6.513271
22.056261,1.968384,-0.144958,0.102971,-0.009580,-7.624545,-6.542611
22.071867,1.632690,-0.137329,0.148748,0.023351,-7.623347,-6.504889
22.087480,1.777649,-0.167847,0.041936,0.010778,-7.600595,-6.506685
22.103090,1.747131,-0.282288,-0.026729,0.005389,-7.604786,-6.503093
22.118663,1.487732,-0.320435,-0.057246,0.022753,-7.594008,-6.491716
22.134242,1.411438,-0.213623,-0.057246,0.005988,-7.625144,-6.497704
22.149798,1.625061,-0.244141,-0.049617,0.018561,-7.617360,-6.498901
22.165363,1.564026,-0.190735,0.194524,0.010778,-7.617360,-6.499500
22.180939,1.365662,-0.183105,0.141118,0.011975,-7.608977,-6.490519
22.196507,1.411438,-0.152588,0.225042,0.005389,-7.626940,-6.488124
22.212095,1.335144,-0.175476,0.072454,0.018561,-7.636520,-6.509679
22.227713,1.327515,-0.205994,0.049565,-0.005389,-7.618557,-6.484531
22.243293,1.205444,0.000000,-0.064875,0.017364,-7.631730,-6.481537
22.258880,1.213074,-0.282288,0.019048,0.002994,-7.634724,-6.495309
22.274465,1.037598,-0.122070,-0.026729,0.017963,-7.634724,-6.469563
22.290039,1.098633,-0.106812,-0.019099,0.012574,-7.650291,-6.476748
22.305614,1.007080,-0.267029,-0.019099,0.013173,-7.652087,-6.486926
22.321210,1.014709,-0.190735,-0.080134,0.011975,-7.647297,-6.464174
22.336801,0.854492,-0.099182,0.064824,0.009580,-7.626940,-6.471359
22.352378,0.740051,-0.289917,0.057195,0.014370,-7.649094,-6.474352
22.367980,0.846863,-0.160217,0.118230,-0.007784,-7.650291,-6.466568
22.383554,0.778198,-0.312805,0.026677,-0.010179,-7.641310,-6.464174
22.399153,0.778198,-0.282288,0.095342,0.025148,-7.628137,-6.479741
22.414736,0.610352,-0.373840,-0.080134,0.009580,-7.653285,-6.480340
22.430326,0.587463,-0.205994,0.041936,-0.001198,-7.667056,-6.479741
22.445915,0.579834,-0.366211,0.095342,0.020956,-7.644304,-6.470760
22.461496,0.518799,-0.205994,0.026677,0.010778,-7.634125,-6.492315
22.477092,0.518799,-0.259399,-0.003840,0.011376,-7.656279,-6.455791
22.492670,0.381470,-0.198364,-0.041987,0.008981,-7.625144,-6.468964
22.508248,0.434875,-0.305176,0.003789,0.012574,-7.640112,-6.461779
22.523847,0.404358,-0.160217,0.118230,0.020358,-7.650890,-6.452797
22.539451,0.205994,-0.251770,0.057195,0.020956,-7.626341,-6.468964
22.555042,0.198364,-0.259399,0.057195,0.001198,-7.649693,-6.468964
22.570631,0.190735,-0.244141,0.049565,0.002395,-7.645501,-6.474951
22.586210,0.144958,-0.137329,0.011418,-0.001796,-7.651489,-6.482136
22.601803,0.167847,-0.236511,0.019048,0.022753,-7.638915,-6.469563
22.617378,0.160217,-0.205994,0.011418,-0.001198,-7.637118,-6.468365
22.632980,0.068665,-0.289917,0.087712,0.005988,-7.643705,-6.467766
22.648558,1.930237,-0.221252,0.064824,0.018561,-7.647297,-6.466568
22.664155,0.053406,-0.236511,0.102971,0.016765,-7.641909,-6.481537
22.679744,0.160217,-0.381470,0.003789,0.010778,-7.649094,-6.482136
22.695321,-1.914978,-0.244141,0.026677,0.016166,-7.628736,-6.331849
22.710901,0.099182,-0.320435,0.011418,-0.002994,-7.647297,-6.488124
22.726499,-0.045776,-0.335693,-0.072505,-0.013771,-7.633526,-6.633022
22.742092,-0.030518,-0.274658,0.064824,-0.002395,-7.643106,-6.609671
22.757652,-0.167847,-0.320435,0.041936,0.010778,-7.624545,-6.632424
22.773209,-0.083923,-0.190735,0.011418,0.020358,-7.629335,-6.482136
22.788797,-0.045776,-0.129700,-0.019099,-0.153281,-7.628137,-6.497704
22.804386,-0.076294,-0.244141,0.041936,-0.149090,-7.628736,-6.492914
22.819966,-0.030518,-0.221252,0.034307,0.148491,-7.617360,-6.505487
22.835528,-0.076294,-0.411987,0.041936,0.002395,-7.625742,-6.503093
22.851091,-0.045776,-0.244141,0.057195,0.018561,-7.608977,-6.491716
22.866666,-0.144958,-0.228882,0.049565,-0.007185,-7.637717,-6.477346
22.882246,0.007629,-0.343323,0.072454,0.018561,-7.626940,-6.506086
22.897832,-0.160217,-0.389099,-0.034358,0.022154,-7.653285,-6.468964
22.913409,-0.198364,-0.190735,-0.026729,-0.013173,-7.630532,-6.494710
22.928990,0.068665,-0.137329,0.057195,0.004191,-7.621551,-6.500698
22.944550,0.022888,-0.228882,-0.057246,0.014370,-7.625144,-6.477945
22.960132,-0.007629,-0.221252,-0.019099,0.014370,-7.617360,-6.503691
22.975711,-0.068665,-0.267029,0.080083,0.010179,-7.616162,-6.497704
22.991294,-0.099182,-0.152588,-0.110652,0.000599,-7.611971,-6.499500
23.006872,0.045776,-0.282288,0.011418,-0.009580,-7.617360,-6.486328
23.022449,0.000000,-0.350952,-0.026729,0.008383,-7.618557,-6.487525
23.038028,0.099182,-0.205994,-0.041987,0.002994,-7.617959,-6.505487
23.053612,-0.083923,-0.267029,0.064824,0.003593,-7.619156,-6.495908
23.069192,-0.030518,-0.244141,0.019048,0.005988,-7.625742,-6.510877
23.084747,0.061035,-0.274658,0.102971,0.000599,-7.607780,-6.521055
23.100333,0.076294,-0.221252,0.072454,0.022753,-7.619755,-6.485130
23.115932,0.114441,-0.175476,0.034307,0.024549,-7.614366,-6.505487
23.131531,0.038147,-0.190735,0.011418,0.007185,-7.589817,-6.519858
23.147135,0.122070,-0.190735,-0.034358,0.004790,-7.628736,-6.495309
23.162730,-0.038147,-0.442505,0.011418,-0.001198,-7.621551,-6.494710
23.178334,0.038147,-0.282288,-0.034358,0.001796,-7.613767,-6.510278
23.193937,0.000000,-0.160217,0.064824,0.010179,-7.613767,-6.498901
23.209543,-0.106812,-0.228882,0.080083,0.003593,-7.616761,-6.505487
23.225136,-0.022888,-0.228882,0.003789,0.011975,-7.622149,-6.509679
23.240738,-0.076294,-0.244141,-0.041987,0.005389,-7.599996,-6.512074
23.256336,-0.022888,-0.190735,0.034307,-0.006586,-7.614366,-6.505487
23.271934,-0.144958,-0.205994,0.026677,-0.012574,-7.614964,-6.516864
23.287533,0.068665,-0.244141,0.019048,0.025148,-7.611372,-6.494112
23.303132,-0.015259,-0.312805,0.003789,0.007784,-7.608977,-6.500099
