Timestamp,Gyro_X_dps,Gyro_Y_dps,Gyro_Z_dps,Accel_X_mps2,Accel_Y_mps2,Accel_Z_mps2
0.005541,0.427246,-0.274658,-0.011470,-0.120350,-5.883366,-8.023332
0.021201,0.251770,-0.244141,-0.003840,-0.141905,-5.880372,-8.025127
0.036816,0.396729,-0.312805,-0.003840,-0.142504,-5.894742,-8.038301
0.052366,0.328064,-0.274658,-0.034358,-0.162861,-5.872588,-8.055065
0.067947,0.549316,-0.144958,0.064824,-0.147892,-5.883366,-8.023332
0.083684,0.335693,-0.129700,0.057195,-0.152084,-5.883366,-8.051473
0.099530,0.289917,-0.320435,-0.026729,-0.144300,-5.882767,-8.055065
0.115669,0.320435,-0.099182,0.057195,-0.155078,-5.854625,-8.036504
0.131411,0.228882,-0.404358,0.080083,-0.148491,-5.906717,-8.036504
0.147371,0.396729,-0.251770,-0.011470,-0.129331,-5.884563,-8.064047
0.163096,0.358582,-0.267029,-0.034358,-0.153880,-5.901328,-8.035905
0.178745,0.381470,-0.205994,0.026677,-0.156874,-5.885162,-8.029319
0.194369,0.328064,-0.373840,0.080083,-0.122745,-5.898933,-8.038898
0.209995,0.450134,-0.198364,0.034307,-0.152682,-5.889353,-8.047281
0.225662,0.274658,-0.282288,0.049565,-0.125739,-5.898335,-8.038898
0.241262,0.213623,-0.205994,0.064824,-0.133522,-5.901927,-8.031713
0.256857,0.396729,-0.251770,0.011418,-0.145497,-5.883366,-8.070034
0.272517,0.305176,-0.289917,0.057195,-0.134121,-5.898933,-8.044288
0.288149,0.320435,-0.274658,0.072454,-0.118553,-5.882168,-8.032312
0.303689,0.221252,-0.152588,-0.080134,-0.129930,-5.883964,-8.031116
0.319276,0.450134,-0.221252,0.049565,-0.161664,-5.888155,-8.029319
0.334814,0.335693,-0.297546,0.095342,-0.134720,-5.886359,-8.058658
0.350416,0.358582,-0.297546,0.019048,-0.127535,-5.909112,-8.028121
0.366006,0.328064,-0.274658,0.034307,-0.120350,-5.895340,-8.023332
0.381590,0.305176,-0.190735,-0.118281,-0.143701,-5.867798,-8.066442
0.397187,0.282288,-0.343323,0.034307,-0.131127,-5.885162,-8.028121
0.412769,0.419617,-0.267029,0.156377,-0.133522,-5.885162,-8.028720
0.428410,0.335693,-0.259399,-0.095393,-0.125140,-5.880970,-8.070633
0.443994,0.396729,-0.244141,-0.026729,-0.147294,-5.880970,-8.053269
0.459660,0.305176,-0.205994,0.057195,-0.129930,-5.877378,-8.050874
0.475263,0.518799,-0.160217,-0.003840,-0.135319,-5.890551,-8.034708
0.490958,0.366211,-0.236511,-0.003840,-0.147294,-5.873187,-8.027523
0.506535,0.267029,-0.297546,-0.041987,-0.123344,-5.877378,-8.043689
0.522152,0.366211,-0.160217,-0.087764,-0.137115,-5.886958,-8.047880
0.537750,0.358582,-0.198364,-0.019099,-0.141306,-5.876181,-8.052072
0.553424,0.350952,-0.221252,0.118230,-0.131726,-5.885760,-8.035306
0.569036,0.282288,-0.099182,-0.034358,-0.150886,-5.896538,-8.057461
0.584751,0.411987,-0.236511,0.041936,-0.146695,-5.903124,-8.038898
0.600374,0.480652,-0.183105,0.072454,-0.135917,-5.889353,-8.017942
0.616005,0.503540,-0.183105,-0.011470,-0.143102,-5.891748,-8.054466
0.633159,0.419617,-0.297546,0.072454,-0.138911,-5.895340,-8.043090
0.648782,0.411987,-0.205994,0.011418,-0.137115,-5.885162,-8.040096
0.664399,0.320435,-0.289917,0.072454,-0.135319,-5.862409,-8.031116
0.681774,0.373840,-0.183105,0.057195,-0.150287,-5.912106,-8.031713
0.698600,0.419617,-0.236511,-0.003840,-0.153281,-5.882168,-8.016147
0.714659,0.335693,-0.205994,0.011418,-0.168849,-5.902525,-8.041294
0.730796,0.297546,-0.267029,-0.003840,-0.136516,-5.897736,-8.041294
0.746625,0.198364,-0.205994,0.011418,-0.294587,-5.901927,-8.040695
0.762525,0.350952,-0.282288,-0.080134,-0.301174,-5.901328,-8.045485
0.778145,0.358582,-0.228882,-0.026729,-0.135917,-5.895939,-8.036504
0.793834,0.205994,-0.221252,0.080083,-0.296982,-5.872588,-8.063448
0.809485,0.244141,-0.350952,0.118230,-0.149090,-5.891748,-8.053867
0.825295,0.457764,-0.244141,0.041936,-0.134121,-5.895340,-8.065244
0.841519,0.350952,-0.190735,0.049565,-0.141905,-5.884563,-8.045485
0.857772,0.305176,-0.267029,0.019048,-0.144300,-5.879773,-8.026924
0.873416,0.358582,-0.190735,0.057195,-0.159269,-5.911507,-8.044288
0.889113,0.297546,-0.282288,0.003789,-0.152682,-5.899532,-8.053269
0.904766,0.213623,-0.175476,-0.057246,-0.118553,-5.883366,-8.035306
0.921100,0.205994,-0.205994,-0.041987,-0.131726,-5.899532,-8.044887
0.936848,0.297546,-0.366211,0.003789,-0.159868,-5.882767,-8.032312
0.952573,0.419617,-0.221252,0.064824,-0.110171,-5.894143,-8.054466
0.968202,0.343323,-0.236511,-0.011470,-0.134720,-5.883366,-8.057461
0.983884,0.396729,-0.282288,0.087712,-0.157473,-5.887557,-7.879630
0.999484,0.267029,-0.312805,0.064824,-0.131127,-5.909112,-8.029918
1.015161,0.312805,-0.198364,0.118230,-0.131726,-5.883366,-8.044887
1.030721,0.335693,-0.183105,0.034307,-0.148491,-5.903124,-8.028720
1.046317,0.434875,-0.320435,0.019048,-0.112566,-5.883366,-8.053867
1.061913,0.282288,-0.244141,0.003789,-0.142504,-5.892347,-8.064047
1.077543,0.396729,-0.244141,-0.003840,-0.131726,-5.874384,-8.053867
1.093241,0.251770,-0.236511,0.064824,-0.143102,-5.900131,-8.048479
1.109052,0.381470,-0.244141,0.041936,-0.143102,-5.894742,-8.065244
1.124715,0.343323,-0.221252,-0.125911,-0.159269,-5.895340,-8.023332
1.140395,0.343323,-0.305176,-0.003840,-0.130529,-5.913303,-8.056263
1.156156,0.419617,-0.183105,0.011418,-0.138312,-5.897736,-8.067639
1.171890,0.152588,-0.259399,-0.011470,-0.149689,-5.877378,-8.031713
1.187673,0.328064,-0.205994,0.011418,-0.117955,-5.883964,-8.036504
1.204358,0.358582,-0.297546,0.095342,-0.143701,-5.904322,-8.060454
1.219900,0.366211,-0.205994,0.064824,-0.132924,-5.889952,-8.034109
1.235507,0.442505,-0.366211,0.057195,-0.133522,-5.889353,-8.021535
1.251187,0.221252,-0.289917,0.102971,-0.143701,-5.896538,-8.022733
1.267226,0.396729,-0.305176,-0.011470,-0.132924,-5.883964,-8.058059
1.283393,0.328064,-0.213623,0.019048,-0.140109,-5.877977,-8.025726
1.299103,0.503540,-0.213623,0.156377,-0.151485,-5.880970,-8.054466
1.314852,0.205994,-0.389099,0.019048,-0.167651,-5.890551,-8.050275
1.330541,0.297546,-0.228882,0.049565,-0.124541,-5.916896,-8.042492
1.346212,0.297546,-0.366211,0.011418,-0.137115,-5.886958,-8.038898
1.361902,0.396729,-0.175476,-0.034358,-0.130529,-5.888754,-8.031713
1.377579,0.289917,-0.259399,0.064824,-0.161664,-5.897137,-8.057461
1.393342,0.396729,-0.198364,0.034307,-0.142504,-5.905519,-8.035306
1.408970,0.419617,-0.167847,-0.003840,-0.162263,-5.891748,-8.044887
1.424560,0.366211,-0.205994,-0.003840,-0.138911,-5.882767,-8.026924
1.440142,0.381470,-0.144958,0.034307,-0.142504,-5.876779,-8.029319
1.455761,0.297546,-0.244141,0.003789,-0.143102,-5.900131,-8.022733
1.471328,0.373840,-0.267029,0.011418,-0.168849,-5.876779,-8.023332
1.486927,0.282288,-0.312805,0.011418,-0.160466,-5.873785,-8.039497
1.502478,0.411987,-0.328064,0.041936,-0.159269,-5.871989,-8.041893
1.518060,0.358582,-0.068665,-0.103022,-0.137714,-5.893544,-8.046682
1.533635,0.442505,-0.221252,0.003789,-0.144300,-5.882767,-8.031116
1.549274,0.160217,-0.244141,-0.003840,-0.147892,-5.891748,-8.041893
1.564952,0.373840,-0.083923,0.125859,-0.146695,-5.869594,-8.020936
1.580570,0.221252,-0.305176,0.026677,-0.141306,-5.880970,-8.042492
1.596525,0.404358,-0.198364,-0.041987,-0.144300,-5.894742,-8.024529
1.612255,0.495911,-0.297546,0.064824,-0.136516,-5.905519,-8.037702
1.627942,0.312805,-0.305176,-0.026729,-0.149090,-5.888754,-8.015548
1.643648,0.396729,-0.297546,-0.019099,-0.131726,-5.874983,-8.031713
1.659238,0.480652,-0.175476,0.095342,-0.144899,-5.875582,-8.043689
1.674845,0.381470,-0.274658,-0.103022,-0.135319,-5.880372,-8.047880
1.690519,0.427246,-0.236511,0.095342,-0.148491,-5.907915,-8.019140
1.706143,0.427246,-0.267029,0.019048,-0.131127,-5.895939,-8.038898
1.721745,0.389099,-0.190735,0.102971,-0.137714,-5.874384,-8.037103
1.737423,0.305176,-0.282288,0.034307,-0.305964,-5.885760,-7.994591
1.753043,0.404358,-0.251770,0.095342,-0.128134,-5.890551,-8.043090
1.768746,0.427246,-0.289917,0.026677,-0.004191,-5.886958,-8.001776
1.784434,0.267029,-0.259399,-0.049617,-0.152682,-5.890551,-8.036504
1.800148,0.396729,-0.205994,-0.019099,-0.144899,-5.903124,-8.042492
1.815841,0.259399,-0.259399,0.057195,-0.141905,-5.877378,-8.061053
1.831516,0.320435,-0.152588,0.141118,-0.122146,-5.876779,-8.039497
1.847474,0.411987,-0.305176,-0.011470,-0.134121,-5.887557,-8.038898
1.863368,0.267029,-0.244141,0.019048,-0.106578,-5.877378,-8.039497
1.879221,0.411987,-0.312805,0.064824,-0.128134,-5.876779,-8.032911
1.894860,0.419617,-0.274658,0.026677,-0.127535,-5.903124,-8.037103
1.910647,0.312805,-0.152588,0.064824,-0.137115,-5.889952,-8.049078
1.926293,0.389099,-0.175476,0.003789,-0.148491,-5.879773,-8.049677
1.941992,0.343323,-0.213623,-0.011470,-0.132924,-5.881569,-8.028720
1.957634,0.404358,-0.297546,0.019048,-0.131726,-5.879174,-8.041294
1.973248,0.442505,-0.282288,0.087712,-0.156874,-5.882767,-8.026924
1.988829,0.305176,-0.099182,0.011418,-0.141306,-5.900131,-8.043090
2.004395,0.450134,-0.244141,-0.110652,-0.114961,-5.902525,-8.043090
2.019980,0.251770,-0.175476,0.057195,-0.134720,-5.892347,-8.052072
2.035565,0.358582,-0.228882,0.003789,-0.125739,-5.882168,-8.061651
2.051176,0.251770,-0.068665,0.102971,-0.137714,-5.897137,-8.050874
2.066822,0.419617,-0.251770,0.011418,-0.155676,-5.895340,-8.029918
2.082511,0.343323,-0.259399,-0.019099,-0.115560,-5.903124,-8.053269
2.098356,0.411987,-0.236511,0.095342,-0.134121,-5.906717,-8.044887
2.114023,0.297546,-0.289917,0.095342,-0.145497,-5.894143,-8.026924
2.129737,0.289917,-0.267029,0.034307,-0.143701,-5.880372,-8.061651
2.145370,0.366211,-0.236511,-0.011470,-0.140109,-5.891150,-8.045485
2.161102,0.495911,-0.289917,0.072454,-0.150287,-5.874983,-8.062250
2.176748,0.228882,-0.190735,-0.041987,-0.140707,-5.874983,-8.019739
2.192385,0.343323,-0.236511,-0.041987,-0.154479,-5.878575,-8.020337
2.208015,0.335693,-0.175476,0.019048,-0.137115,-5.871390,-8.022134
2.223653,0.450134,-0.144958,0.026677,-0.131127,-5.889353,-8.014949
2.239240,0.404358,-0.144958,0.049565,-0.123942,-5.891150,-8.055065
2.254918,0.267029,-0.205994,0.011418,-0.138312,-5.893544,-8.008961
2.270533,0.358582,-0.190735,0.087712,-0.150287,-5.882767,-8.030517
2.286151,0.450134,-0.190735,-0.019099,-0.137714,-5.874983,-8.019739
2.301826,0.419617,-0.251770,0.057195,-0.132924,-5.879773,-8.049078
2.317468,0.396729,-0.289917,0.072454,-0.138911,-5.879174,-8.016745
2.333165,0.396729,-0.404358,0.087712,-0.137115,-5.887557,-8.034109
2.348820,0.396729,-0.129700,-0.011470,-0.146096,-5.891150,-8.033510
2.364573,0.274658,-0.122070,0.110601,-0.144300,-5.886359,-8.032911
2.380409,0.473022,-0.175476,0.049565,-0.129930,-5.870791,-8.028720
2.396158,0.373840,-0.205994,-0.019099,-0.132924,-5.896538,-8.062849
2.411802,0.373840,-0.129700,-0.011470,-0.142504,-5.886958,-8.051473
2.427590,0.305176,-0.114441,-0.003840,-0.132924,-5.891748,-8.028121
2.443198,0.198364,-0.152588,0.049565,-0.150886,-5.895939,-8.035905
2.458826,0.244141,-0.213623,-0.019099,-0.147294,-5.877977,-8.041294
2.474439,0.312805,-0.282288,0.080083,-0.143701,-5.906118,-8.035905
2.490069,0.328064,-0.160217,0.034307,-0.133522,-5.902525,-8.061651
2.505660,0.274658,-0.251770,-0.011470,-0.135319,-5.877378,-8.047281
2.521260,0.328064,-0.335693,0.041936,-0.132924,-5.891748,-8.048479
2.536861,0.381470,-0.205994,0.003789,-0.144899,-5.903723,-8.043090
2.552448,0.358582,-0.244141,0.019048,-0.135917,-5.889353,-8.043090
2.568053,0.366211,-0.198364,-0.003840,-0.149689,-5.890551,-8.020936
2.583668,0.373840,-0.328064,0.049565,-0.159868,-5.881569,-8.026924
2.599406,0.282288,-0.335693,0.080083,-0.149689,-5.884563,-8.059257
2.615087,0.389099,-0.320435,-0.026729,-0.125739,-5.882767,-8.059855
2.630736,0.198364,-0.320435,0.003789,-0.152682,-5.894742,-8.035905
2.646446,0.366211,-0.305176,-0.011470,-0.117955,-5.891748,-8.035905
2.662154,0.488281,-0.198364,0.095342,-0.140109,-5.865403,-8.044288
2.677933,0.396729,-0.251770,0.041936,-0.126337,-5.892347,-8.048479
2.693574,0.366211,-0.289917,0.064824,-0.128732,-5.885162,-8.028720
2.709284,0.358582,-0.320435,0.041936,-0.148491,-5.883366,-8.037103
2.724901,0.396729,-0.320435,-0.003840,-0.141306,-5.873785,-8.043090
2.740525,0.427246,-0.328064,0.072454,-0.151485,-5.887557,-8.034708
2.756147,0.259399,-0.251770,0.064824,-0.128732,-5.900729,-8.048479
2.771739,0.228882,-0.305176,-0.011470,-0.126337,-5.888155,-8.050874
2.787393,0.289917,-0.320435,-0.026729,-0.125140,-5.867199,-8.052072
2.803008,0.358582,-0.335693,0.019048,-0.142504,-5.882767,-8.049677
2.818669,0.221252,-0.282288,-0.026729,-0.147892,-5.887557,-8.027523
2.834314,0.305176,-0.099182,0.011418,-0.137714,-5.884563,-8.017942
2.849913,0.389099,-0.251770,-0.019099,-0.144300,-5.886359,-8.037702
2.865563,0.389099,-0.274658,0.019048,-0.161065,-5.889952,-8.028121
2.881230,0.442505,-0.190735,-0.049617,-0.120948,-5.895340,-8.042492
2.896892,0.434875,-0.259399,0.049565,-0.131127,-5.880372,-8.056263
2.912569,0.289917,-0.213623,0.034307,-0.145497,-5.879174,-8.023332
2.928219,0.358582,-0.144958,0.011418,-0.158071,-5.898933,-8.044288
2.943851,0.473022,-0.236511,0.080083,-0.120948,-5.899532,-8.063448
2.959557,0.373840,-0.373840,0.003789,-0.120948,-5.933062,-8.012554
2.975165,0.297546,-0.228882,0.019048,-0.144300,-5.902525,-8.024529
2.991019,0.328064,-0.289917,0.095342,-0.142504,-5.875582,-8.034708
3.007053,0.251770,-0.289917,0.011418,-0.147294,-5.886359,-8.062250
3.022698,0.305176,-0.274658,0.041936,-0.305964,-5.892347,-8.038898
3.038816,0.511169,-0.274658,0.057195,-0.149090,-5.892946,-8.023930
3.054655,0.366211,-0.328064,0.034307,-0.137115,-5.888155,-8.037702
3.070556,0.366211,-0.259399,0.003789,-0.157473,-5.885760,-8.037103
3.086472,0.366211,-0.152588,-0.064875,-0.131127,-5.895340,-8.049677
3.102933,0.328064,-0.190735,0.080083,-0.122745,-5.871390,-8.043689
3.118817,0.190735,-0.282288,-0.095393,-0.143102,-5.896538,-8.047281
3.134841,0.389099,-0.320435,0.026677,-0.137115,-5.888754,-8.054466
3.150639,0.312805,-0.312805,-0.057246,-0.162861,-5.886958,-8.038301
3.166573,0.396729,-0.320435,0.034307,-0.122146,-5.897736,-8.047281
3.182427,0.305176,-0.343323,0.034307,-0.134121,-5.886359,-8.046682
3.198105,0.503540,-0.175476,0.034307,-0.135917,-5.877977,-8.016147
3.214071,0.389099,-0.175476,-0.019099,-0.134121,-5.892946,-8.037103
3.229980,0.373840,-0.175476,-0.034358,-0.143102,-5.906118,-8.061651
3.245673,0.389099,-0.320435,0.011418,-0.137714,-5.871390,-8.054466
3.261548,0.427246,-0.228882,0.057195,-0.136516,-5.870193,-8.039497
3.277210,0.350952,-0.183105,0.087712,-0.142504,-5.894143,-8.038301
3.293526,0.358582,-0.373840,0.041936,-0.147892,-5.894742,-8.028121
3.309334,0.350952,-0.076294,-0.003840,-0.125140,-5.889353,-8.065244
3.325430,0.366211,-0.205994,0.041936,-0.143701,-5.872588,-8.028720
3.341164,0.396729,-0.144958,-0.041987,-0.134121,-5.887557,-8.057461
3.357802,0.274658,-0.312805,0.019048,-0.128134,-5.892946,-8.039497
3.373442,0.381470,-0.267029,0.064824,-0.138911,-5.907316,-8.045485
3.389437,0.190735,-0.198364,0.019048,-0.146096,-5.883366,-8.040096
3.405420,0.381470,-0.282288,-0.003840,-0.166454,-5.884563,-8.035905
3.421436,0.274658,-0.213623,0.003789,-0.152084,-5.884563,-8.017942
3.437514,0.305176,-0.129700,-0.019099,-0.137714,-5.878575,-8.027523
3.453669,0.251770,-0.114441,-0.064875,-0.139510,-5.882168,-8.007764
3.469589,0.320435,-0.160217,0.110601,-0.129930,-5.868995,-8.162243
3.485640,0.274658,-0.137329,-0.011470,-0.130529,-5.884563,-8.035306
3.501461,0.320435,-0.114441,-0.026729,-0.150886,-5.888155,-8.029319
3.517741,0.343323,-0.312805,0.087712,-0.132325,-5.885162,-8.030517
3.533359,0.366211,-0.328064,0.034307,-0.158670,-5.906717,-8.041893
3.549508,0.335693,-0.389099,0.057195,-0.137714,-5.877378,-8.055664
3.565464,0.251770,-0.190735,0.095342,-0.149689,-5.880970,-8.029319
3.581148,0.427246,-0.244141,-0.011470,-0.149090,-5.882168,-8.064047
3.597144,0.289917,-0.228882,-0.003840,-0.128134,-5.903723,-8.052670
3.613227,0.411987,-0.251770,-0.118281,-0.146695,-5.872588,-8.035306
3.629233,0.419617,-0.289917,0.125859,-0.134121,-5.877378,-8.053269
3.644964,0.366211,-0.267029,0.034307,-0.146096,-5.886958,-8.046084
3.660607,0.312805,-0.167847,-0.064875,-0.155676,-5.879174,-8.056263
3.676262,0.457764,-0.389099,0.118230,-0.146096,-5.883964,-8.063448
3.691861,0.411987,-0.343323,0.118230,-0.137714,-5.885760,-8.056862
3.707464,0.457764,-0.213623,-0.034358,-0.156874,-5.892347,-8.023332
3.723100,0.381470,-0.236511,0.087712,-0.147294,-5.877378,-8.028121
3.738695,0.343323,-0.274658,0.019048,-0.137115,-5.892946,-8.032312
3.754345,0.450134,-0.251770,-0.118281,-0.131127,-5.885162,-8.027523
3.770000,0.404358,-0.228882,0.003789,-0.143701,-5.894143,-8.037702
3.785722,0.434875,-0.221252,0.072454,-0.147294,-5.883964,-8.036504
3.801436,0.396729,-0.244141,0.087712,-0.138312,-5.891150,-8.050275
3.817112,0.473022,-0.282288,0.148748,-0.023950,-5.887557,-8.047281
3.832839,0.427246,-0.228882,-0.041987,-0.004790,-5.901927,-8.031713
3.848532,0.442505,-0.244141,0.019048,-0.126337,-5.892946,-8.062250
3.864226,0.358582,-0.267029,0.003789,-0.285007,-5.885760,-8.034109
3.879920,0.305176,-0.251770,0.003789,-0.148491,-5.897736,-8.059257
3.895642,0.404358,-0.167847,0.164006,-0.142504,-5.895340,-8.043689
3.911278,0.389099,-0.183105,-0.072505,-0.120948,-5.895340,-8.165835
3.927020,0.274658,-0.205994,-0.003840,-0.126337,-5.899532,-8.050275
3.942604,0.373840,-0.343323,-0.049617,-0.144899,-5.889952,-8.033510
3.958249,0.251770,-0.198364,0.034307,-0.120350,-5.892347,-8.040096
3.973815,0.366211,-0.183105,0.080083,-0.156275,-5.863008,-8.035905
3.989444,0.358582,-0.381470,0.026677,-0.152084,-5.869594,-8.022134
4.005058,0.389099,-0.297546,0.049565,-0.138911,-5.881569,-8.031713
4.020712,0.396729,-0.129700,0.102971,-0.141905,-5.889353,-8.052072
4.036368,0.305176,-0.244141,-0.011470,-0.129930,-5.891748,-8.031116
4.052005,0.205994,-0.244141,0.041936,-0.143701,-5.871989,-8.043689
4.067673,0.396729,-0.282288,-0.019099,-0.141306,-5.884563,-8.023332
4.083341,0.274658,-0.396729,0.019048,-0.134121,-5.882168,-8.036504
4.099085,0.389099,-0.198364,0.019048,-0.136516,-5.884563,-8.041294
4.116068,0.228882,-0.328064,0.064824,-0.137714,-5.880970,-8.026924
4.131820,0.358582,-0.228882,0.049565,-0.146096,-5.894143,-8.052670
4.147618,0.343323,-0.236511,0.011418,-0.131726,-5.894143,-8.044887
4.163375,0.396729,-0.228882,0.087712,-0.004191,-5.884563,-8.036504
4.179036,0.343323,-0.213623,-0.064875,-0.137714,-5.904322,-8.066442
4.194674,0.114441,-0.190735,0.019048,-0.129331,-5.891748,-8.052072
4.210269,0.396729,-0.320435,0.003789,-0.138911,-5.882168,-7.876637
4.225929,0.511169,-0.137329,0.164006,-0.139510,-5.882168,-8.162243
4.241501,0.427246,-0.190735,0.102971,-0.150886,-5.874983,-8.030517
4.257119,0.297546,-0.419617,0.064824,-0.160466,-5.900729,-8.168829
4.272764,0.473022,-0.297546,0.041936,-0.143701,-5.891150,-7.865859
4.288400,0.198364,-0.358582,0.095342,-0.148491,-5.897736,-7.874840
4.304087,0.442505,-0.312805,-0.019099,-0.139510,-5.904322,-8.032312
4.319742,0.259399,-0.167847,-0.003840,-0.128732,-5.909112,-8.037702
4.335484,0.366211,-0.144958,0.026677,-0.140109,-5.892347,-8.026924
4.351178,0.259399,-0.152588,0.026677,-0.135917,-5.875582,-8.053867
4.366922,0.427246,-0.236511,-0.003840,-0.147294,-5.867199,-8.040096
4.382660,0.274658,-0.411987,-0.080134,-0.135917,-5.861810,-8.034708
4.398411,0.190735,-0.366211,0.057195,-0.141905,-5.876779,-8.064646
4.414172,0.350952,-0.297546,-0.011470,-0.144300,-5.893544,-8.032312
4.430020,0.312805,-0.251770,-0.003840,-0.159269,-5.894143,-8.043689
4.445663,0.358582,-0.312805,0.041936,-0.140707,-5.895939,-8.059257
4.461410,0.343323,-0.099182,0.019048,-0.143701,-5.885162,-8.029319
4.477011,0.236511,-0.236511,0.003789,-0.136516,-5.904921,-8.025726
4.492596,0.312805,-0.396729,0.057195,-0.117356,-5.883366,-8.037103
4.508183,0.251770,-0.312805,0.095342,-0.128134,-5.886359,-8.069435
4.523759,0.236511,-0.144958,0.003789,-0.103585,-5.873187,-8.070034
4.539339,0.434875,-0.289917,0.102971,-0.148491,-5.892946,-8.055664
4.554947,0.328064,-0.160217,-0.041987,-0.142504,-5.873187,-8.046084
4.570580,0.274658,-0.320435,0.003789,-0.149090,-5.895340,-8.044887
4.586296,0.267029,-0.190735,0.049565,-0.142504,-5.877977,-8.040096
4.602003,0.373840,-0.274658,0.041936,-0.151485,-5.874384,-8.038301
4.618329,0.335693,-0.114441,0.034307,-0.158670,-5.889952,-8.043090
4.634222,0.350952,-0.236511,0.019048,-0.136516,-5.871390,-8.032312
4.649943,0.320435,-0.175476,0.041936,-0.149090,-5.884563,-8.025127
4.665720,0.320435,-0.129700,-0.049617,-0.142504,-5.895939,-8.046084
4.681407,0.411987,-0.282288,-0.011470,-0.147294,-5.876779,-8.020337
4.697185,0.289917,-0.297546,0.026677,-0.174836,-5.899532,-8.030517
4.712808,0.419617,-0.343323,0.080083,-0.147294,-5.870193,-8.023930
4.728485,0.320435,-0.282288,0.049565,-0.153880,-5.883964,-8.066442
4.744115,0.556946,-0.236511,-0.019099,-0.136516,-5.912704,-8.031713
4.759753,0.457764,-0.205994,0.072454,-0.145497,-5.930068,-8.016147
4.775365,0.343323,-0.183105,0.049565,-0.127535,-5.897736,-8.037702
4.790951,0.450134,-0.244141,-0.041987,-0.124541,-5.909112,-8.045485
4.806536,0.404358,-0.183105,-0.003840,-0.135319,-5.852230,-8.050874
4.822184,0.358582,-0.259399,0.095342,-0.149090,-5.906118,-8.056862
4.837785,0.297546,-0.267029,0.049565,-0.146695,-5.895939,-8.085602
4.853533,0.358582,-0.076294,0.057195,-0.148491,-5.898335,-8.032312
4.869239,0.373840,-0.190735,0.026677,-0.147892,-5.885760,-8.023332
4.884948,0.244141,-0.137329,-0.026729,-0.159868,-5.891748,-8.033510
4.900642,0.312805,-0.152588,-0.026729,-0.150886,-5.886958,-8.018541
4.916368,0.198364,-0.236511,0.034307,-0.153281,-5.893544,-8.035306
4.932156,0.366211,-0.198364,0.026677,-0.149689,-5.901927,-8.013751
4.947932,0.213623,-0.251770,0.057195,-0.143102,-5.891150,-8.028720
4.963640,0.419617,-0.106812,0.095342,-0.121547,-5.886958,-8.028720
4.979255,0.328064,-0.267029,0.095342,-0.149090,-5.903124,-8.047281
4.994942,0.358582,-0.114441,-0.011470,-0.150287,-5.889353,-8.047281
5.010572,0.411987,-0.267029,0.034307,-0.113763,-5.866002,-8.031116
5.026239,0.289917,-0.167847,0.019048,-0.144300,-5.871989,-8.043090
5.041838,0.205994,-0.366211,-0.041987,-0.131127,-5.876181,-8.030517
5.057464,0.289917,-0.343323,-0.003840,-0.126936,-5.885760,-8.025726
5.073078,0.366211,-0.236511,-0.026729,-0.118553,-5.892946,-8.035306
5.088697,0.190735,-0.282288,0.034307,-0.140109,-5.900729,-8.036504
5.104275,0.381470,-0.282288,-0.148799,-0.120948,-5.891748,-8.047880
5.120429,0.389099,-0.236511,0.026677,-0.124541,-5.880970,-8.042492
5.136193,0.572205,-0.213623,0.080083,-0.146096,-5.883366,-8.047281
5.151911,0.221252,-0.205994,0.072454,-0.135319,-5.876181,-8.043689
5.167697,0.366211,-0.160217,0.202153,-0.146096,-5.888754,-8.029918
5.183456,0.328064,-0.175476,0.049565,-0.126337,-5.913902,-8.038898
5.199171,0.473022,-0.350952,0.064824,-0.126337,-5.885162,-8.052670
5.214824,0.404358,-0.099182,-0.034358,-0.137115,-5.901328,-8.037103
5.230500,0.343323,-0.175476,-0.026729,-0.137714,-5.890551,-8.017344
5.246121,0.251770,-0.267029,-0.026729,-0.131726,-5.870193,-8.041294
5.261800,0.411987,-0.205994,-0.080134,-0.149689,-5.897137,-8.036504
5.277454,0.389099,-0.205994,0.003789,-0.143701,-5.894742,-8.053269
5.293087,0.335693,-0.122070,0.003789,-0.146695,-5.877977,-8.059257
5.308663,0.335693,-0.183105,0.019048,-0.162263,-5.895340,-8.046682
5.324235,0.236511,-0.267029,0.133489,-0.148491,-5.914501,-8.047880
5.339855,0.434875,-0.244141,0.102971,-0.129930,-5.883964,-8.024529
5.355458,0.328064,-0.251770,-0.041987,-0.116158,-5.892946,-8.051473
5.371141,0.343323,-0.114441,-0.034358,-0.164059,-5.858817,-8.041893
5.386809,0.328064,-0.099182,0.072454,-0.159269,-5.886958,-8.027523
5.402532,0.305176,-0.244141,0.034307,-0.126936,-5.901927,-8.035306
5.418362,0.289917,-0.221252,-0.019099,-0.147294,-5.889952,-8.012554
5.434082,0.267029,-0.267029,0.003789,-0.158071,-5.889353,-8.052072
5.449893,0.381470,-0.244141,0.019048,-0.139510,-5.882168,-8.052072
5.465601,0.312805,-0.274658,0.019048,-0.136516,-5.901328,-8.050275
5.481413,0.381470,-0.305176,0.064824,-0.142504,-5.859415,-8.061053
5.497097,0.244141,-0.244141,0.057195,-0.149689,-5.900131,-8.049078
5.512756,0.358582,-0.282288,0.034307,-0.116757,-5.879773,-8.047880
5.528505,0.328064,-0.320435,0.011418,-0.140109,-5.890551,-8.022134
5.544069,0.450134,-0.213623,0.133489,-0.147892,-5.911507,-8.046084
5.559696,0.312805,-0.175476,0.102971,-0.147892,-5.885162,-8.047880
5.575314,0.335693,-0.343323,0.080083,-0.140707,-5.883964,-8.053867
5.590937,0.396729,-0.198364,0.041936,-0.123344,-5.885162,-8.034708
5.606564,0.450134,-0.091553,0.019048,-0.161664,-5.877977,-8.016147
5.622280,0.183105,-0.236511,0.080083,-0.118553,-5.909711,-8.026924
5.637913,0.297546,-0.205994,0.019048,-0.267045,-5.899532,-8.060454
5.653562,0.366211,-0.205994,0.034307,-0.128732,-5.883964,-7.997585
5.669214,0.373840,-0.183105,0.034307,-0.014969,-5.893544,-8.040096
5.684887,0.320435,-0.183105,0.125859,-0.119152,-5.878575,-8.059855
5.700624,0.434875,-0.228882,0.072454,-0.126337,-5.870791,-8.033510
5.716348,0.282288,-0.274658,0.102971,-0.007185,-5.884563,-8.055065
5.732095,0.282288,-0.267029,0.034307,-0.146096,-5.879174,-8.061053
5.747938,0.450134,-0.167847,0.041936,-0.144899,-5.889952,-8.063448
5.763664,0.236511,-0.152588,0.072454,-0.132924,-5.880970,-8.030517
5.779358,0.396729,-0.320435,0.019048,-0.161664,-5.877977,-8.053867
5.794951,0.282288,-0.213623,0.080083,-0.146695,-5.875582,-8.049677
5.810616,0.289917,-0.297546,0.080083,-0.127535,-5.895939,-8.056862
5.826196,0.556946,-0.236511,-0.041987,-0.135319,-5.882168,-8.042492
5.841780,0.495911,-0.175476,0.011418,-0.137115,-5.892347,-8.053269
5.857353,0.305176,-0.259399,0.095342,-0.144899,-5.888754,-8.047281
5.872986,0.274658,-0.274658,0.049565,-0.138911,-5.885760,-8.037103
5.888585,0.442505,-0.335693,-0.019099,-0.141905,-5.885760,-8.024529
5.904171,0.396729,-0.152588,0.011418,-0.134720,-5.889353,-8.040695
5.919774,0.434875,-0.175476,-0.003840,-0.116757,-5.902525,-8.050874
5.935407,0.411987,-0.267029,-0.049617,-0.137714,-5.888754,-8.055065
5.951023,0.465393,-0.289917,0.011418,-0.159269,-5.888155,-8.029319
5.966688,0.289917,-0.244141,0.041936,-0.149689,-5.870193,-8.059257
5.982314,0.282288,-0.228882,-0.034358,-0.159269,-5.900131,-8.023332
5.998004,0.373840,-0.312805,0.026677,-0.153281,-5.882767,-8.051473
6.013567,0.465393,-0.297546,0.003789,-0.137115,-5.878575,-8.034708
6.029171,0.450134,-0.221252,0.110601,-0.152084,-5.892946,-8.052072
6.044714,0.236511,-0.358582,0.080083,-0.143701,-5.876181,-8.168829
6.060435,0.396729,-0.320435,-0.026729,-0.128732,-5.880372,-8.167631
6.076027,0.404358,-0.236511,-0.019099,-0.139510,-5.880372,-8.035905
6.091618,0.381470,-0.152588,0.026677,-0.130529,-5.890551,-8.024529
6.107185,0.389099,-0.167847,0.019048,-0.122146,-5.873785,-8.049078
6.122879,0.305176,-0.244141,0.080083,-0.128732,-5.879773,-8.051473
6.138485,0.305176,-0.328064,0.011418,-0.150287,-5.889353,-8.031713
6.154174,0.343323,-0.244141,0.072454,-0.127535,-5.890551,-8.076620
6.169814,0.350952,-0.114441,-0.041987,-0.134121,-5.887557,-8.049078
6.185498,0.465393,-0.251770,-0.003840,-0.129331,-5.896538,-8.022134
6.201230,0.320435,-0.228882,0.125859,-0.145497,-5.888155,-8.024529
6.216934,0.328064,-0.389099,0.019048,-0.155676,-5.886958,-8.057461
6.232601,0.343323,-0.305176,-0.049617,-0.147294,-5.886958,-8.038301
6.248286,0.274658,-0.221252,0.003789,-0.134121,-5.886359,-8.032911
6.263967,0.289917,-0.320435,-0.003840,-0.140109,-5.884563,-8.037702
6.279621,0.282288,-0.152588,-0.041987,-0.135319,-5.879174,-8.019739
6.295253,0.419617,-0.228882,0.049565,-0.124541,-5.884563,-8.025726
6.310851,0.404358,-0.152588,0.049565,-0.136516,-5.873187,-8.038301
6.326397,0.320435,-0.167847,0.110601,-0.157473,-5.857020,-8.044887
6.341969,0.335693,-0.312805,-0.026729,-0.141905,-5.872588,-8.063448
6.357530,0.427246,-0.305176,0.057195,-0.143102,-5.900729,-8.025726
6.373110,0.259399,-0.175476,0.034307,-0.117955,-5.913303,-8.029319
6.388687,0.495911,-0.137329,0.041936,-0.113165,-5.901927,-8.035905
6.404305,0.259399,-0.167847,-0.026729,-0.150287,-5.889353,-8.035905
6.419894,0.442505,-0.244141,-0.103022,-0.144899,-5.868995,-8.037702
6.435526,0.373840,-0.198364,0.102971,-0.122745,-5.881569,-8.046682
6.451273,0.312805,-0.160217,-0.041987,-0.131726,-5.886359,-8.002974
6.466942,0.068665,-0.358582,0.026677,-0.183219,-5.924680,-7.980820
6.482654,0.358582,-0.366211,0.019048,-0.086221,-5.712720,-7.880827
6.498367,-1.205444,0.198364,0.652288,0.021555,-5.696554,-7.995190
6.513976,-2.677917,-0.274658,1.331304,0.053888,-5.971981,-8.188587
6.529574,0.534058,-0.297546,1.369451,-0.461640,-5.435497,-8.577778
6.545150,4.577637,2.319336,1.377080,-0.529299,-5.636679,-8.453238
6.560749,8.514404,0.740051,0.675176,-0.653242,-5.399571,-8.226908
6.576411,12.298584,2.418518,1.338933,-0.207169,-5.115762,-8.231099
6.591968,13.748169,1.655579,2.925847,-0.083826,-5.125940,-8.042492
6.607601,15.541077,2.670288,5.176518,0.173639,-5.242698,-8.195773
6.623268,18.348694,1.075745,6.969426,0.458646,-5.244494,-8.298759
6.638913,21.751404,-0.274658,7.137273,0.391586,-5.551655,-8.406534
6.654588,27.366638,-1.342773,5.710576,0.128134,-5.769003,-8.277204
6.670236,33.096313,-1.792908,4.497502,-0.370629,-5.918093,-8.236488
6.685964,39.443970,-1.052856,5.168889,-0.600551,-5.931266,-8.031713
6.701645,42.922974,-1.052856,4.177068,-0.282014,-5.931266,-7.702997
6.717390,44.509888,-0.724792,1.377080,-0.125140,-5.895340,-7.539537
6.733072,42.968750,-0.343323,-1.636531,-0.338297,-6.148614,-7.194056
6.748919,40.771484,-2.540588,-2.140071,-0.871787,-6.756350,-7.163519
6.764549,39.016724,1.922607,-5.344417,-0.095202,-7.331754,-7.110230
6.780194,39.215088,-1.670837,-8.014705,-0.278421,-7.500602,-7.169507
6.795786,38.818359,-1.884460,-10.746028,-0.154479,-7.721543,-6.868932
6.811363,37.933350,-3.326416,-9.830501,-0.332908,-7.480245,-6.730619
6.826946,34.461975,-2.220154,-8.228328,0.404758,-7.580835,-6.436032
6.842510,30.426025,-4.364014,-8.502986,0.547262,-7.349117,-6.444415
6.858144,26.359558,-4.898071,-7.808711,-0.129331,-7.880812,-6.709663
6.873711,25.352478,-4.234314,-4.329707,-0.553250,-7.473060,-6.631825
6.889333,25.642395,-0.526428,0.446294,-0.474214,-7.538923,-6.586918
6.905007,23.078918,1.571655,2.445195,0.301174,-7.747888,-6.407292
6.920656,20.835876,0.701904,2.605412,0.010778,-7.761660,-6.444415
6.936404,20.263672,0.015259,3.902410,-0.449066,-7.946076,-6.528839
6.952107,19.760132,2.212524,4.940007,-0.221539,-7.716154,-6.381546
6.967810,17.463684,2.639771,4.734014,-0.065863,-7.865843,-6.303109
6.983497,16.021729,1.853943,3.345464,-0.049098,-7.747290,-6.310294
6.999257,14.862061,0.335693,2.368901,-0.315544,-7.981402,-6.439026
7.014887,14.503479,-0.122070,0.270818,-0.204774,-7.851473,-6.331849
7.030498,14.129639,-0.572205,-0.835444,-0.279619,-7.836504,-6.249819
7.046080,12.977600,-1.274109,-2.353694,-0.245490,-7.403006,-6.201320
7.061678,11.848450,-1.411438,-2.918269,-0.225132,-7.894583,-6.299516
7.077224,11.077881,-0.854492,-2.750422,-0.096998,-7.781418,-6.127075
7.092813,10.978699,-1.342773,-3.055598,-0.101190,-7.984995,-6.287541
7.108324,11.116028,-1.853943,-3.139522,-0.126936,-7.826924,-6.259399
7.124013,10.749817,-1.167297,-2.620723,-0.179626,-7.922126,-6.112106
7.139614,10.124207,-0.907898,-1.674678,-0.050295,-7.973020,-6.106118
7.155253,9.307861,-0.740051,-1.056697,-0.096998,-7.931706,-6.096538
7.170872,8.628845,-0.251770,-0.171687,-0.134121,-7.973020,-6.095341
7.186567,8.911133,0.373840,0.766729,-0.082029,-7.976613,-6.151025
7.202251,9.223938,1.213074,1.445745,-0.119152,-8.031698,-6.115099
7.217897,9.849548,1.449585,1.926396,-0.116757,-7.923922,-6.083964
7.233527,9.757996,2.037048,2.437566,-0.149689,-7.940088,-6.116297
7.249181,9.872437,2.319336,2.780889,-0.128134,-7.860454,-6.055224
7.264777,9.826660,1.724243,2.529119,-0.056882,-7.922126,-6.049236
7.280346,11.550903,1.617432,0.194524,-0.155676,-8.009544,-5.613343
7.295945,11.054993,0.747681,0.087712,-0.085023,-8.143665,-5.786383
7.311474,12.977600,0.030518,-1.903560,-0.211959,-8.138875,-5.815722
7.327046,12.992859,-1.121521,-3.017451,-0.273032,-8.275990,-5.724113
7.342577,13.755798,-1.411438,-3.894832,-0.155676,-8.134085,-5.951639
7.358109,11.718750,-2.159119,-4.779841,-0.110770,-8.187973,-5.624719
7.373679,9.117126,-2.319336,-6.221797,-0.292791,-8.205337,-5.649268
7.389241,7.263184,-2.647400,-7.175471,-0.240699,-8.110135,-5.760038
7.404860,6.072998,-1.892090,-7.205989,-0.243094,-8.244855,-5.764828
7.420497,5.027771,-0.885010,-6.809260,-0.126936,-8.249046,-5.676212
7.436202,4.898071,-0.480652,-5.832698,0.040715,-8.250842,-5.727106
7.451946,4.524231,1.678467,-5.107905,0.079036,-8.319699,-5.600769
7.467628,4.615784,-0.198364,-4.276301,0.076042,-8.305927,-5.724113
7.483332,4.783630,-0.198364,-3.833797,0.300575,-8.322693,-5.641484
7.499063,3.898621,-0.640869,-3.429439,0.522114,-8.360415,-5.730699
7.514730,3.906250,-0.457764,-2.925899,0.402962,-8.349038,-5.672620
7.530464,4.913330,-0.984192,-1.148250,0.056882,-8.369396,-5.667830
7.546081,5.187988,-0.091553,0.484441,0.189207,-8.304730,-5.554665
7.561718,3.280640,-0.038147,0.698064,0.047900,-8.347840,-5.497783
7.577270,1.083374,-0.350952,0.431035,0.007784,-8.372989,-5.466049
7.592897,-0.587463,-0.762939,0.316594,-0.165256,-8.465796,-5.630707
7.608497,-1.327515,-0.534058,0.301335,-0.034728,-8.443043,-5.539696
7.624140,-2.052307,-0.076294,1.087163,0.045505,-8.437654,-5.546881
7.640200,-2.319336,0.297546,1.880620,0.002395,-8.283773,-5.684595
7.655971,-3.036499,1.068115,2.223943,-0.107776,-8.253238,-5.650465
7.671678,-3.814697,0.976562,2.269719,0.002994,-8.238269,-5.688786
7.687367,-4.234314,0.984192,1.987432,0.124541,-8.239466,-5.765427
7.703096,-3.646851,0.671387,1.934026,0.113763,-8.218510,-5.784587
7.718807,-2.243042,0.221252,2.086614,0.155078,-8.210127,-5.800753
7.734488,-1.380920,-0.038147,2.185796,0.031734,-8.188572,-5.806741
7.750230,-0.747681,-0.053406,2.185796,-0.043709,-8.134684,-5.779797
7.766161,-0.701904,0.114441,1.674626,-0.074246,-8.145461,-5.685792
7.781806,-0.686646,-0.274658,0.888799,-0.002994,-8.126900,-5.723514
7.797406,-0.785828,-0.755310,0.362371,0.040117,-8.191566,-5.734890
7.813028,-0.740051,-1.342773,-0.041987,-0.021555,-8.214318,-5.718125
7.828588,-0.686646,-1.136780,0.011418,-0.172441,-8.295150,-5.719921
7.844165,-0.915527,-0.572205,-0.148799,-0.208367,-8.235873,-5.737285
7.859711,-1.144409,-0.160217,0.270818,-0.108973,-8.212522,-5.773211
7.875311,-1.197815,0.167847,0.354741,0.005988,-8.150251,-5.781593
7.890891,-1.144409,0.144958,0.293706,0.040715,-8.151449,-5.807340
7.906546,-1.075745,0.045776,0.415776,0.010179,-8.198152,-5.838475
7.922233,-0.869751,0.129700,0.446294,-0.068258,-8.207133,-5.816919
7.937891,-0.335693,0.221252,0.431035,-0.019160,-8.216713,-5.795963
7.953545,0.274658,-0.038147,0.347112,0.080233,-8.216713,-5.784587
7.969266,0.328064,-0.343323,0.179265,0.098795,-8.218510,-5.752853
7.984973,0.480652,-0.984192,-0.209834,-0.019160,-8.152048,-5.786982
8.000751,0.473022,-1.083374,-0.240352,-0.050295,-8.192763,-5.742075
8.016512,-0.038147,-1.228333,-0.247981,-0.076641,-8.285570,-5.740279
8.032209,-0.122070,-0.778198,0.263188,-0.039518,-8.259225,-5.776204
8.047881,-0.267029,-0.564575,0.446294,-0.023950,-8.239466,-5.762433
8.063618,-0.701904,-0.518799,0.698064,-0.045505,-8.275990,-5.701360
8.079262,-1.739502,-0.320435,0.812505,-0.065264,-8.280181,-5.710341
8.094841,-2.342224,0.038147,1.102422,-0.150287,-8.255632,-5.739081
8.110440,-2.548218,0.366211,1.529668,-0.114961,-8.226294,-5.760038
8.125997,-2.677917,0.778198,1.750920,-0.040117,-8.201145,-5.821111
8.141668,-2.601624,0.816345,1.834844,0.017963,-8.174801,-5.786982
8.157265,-2.670288,0.503540,1.712773,0.039518,-8.178991,-5.843265
8.172986,-2.510071,0.267029,1.720403,-0.136516,-8.117919,-5.882782
8.188521,-1.884460,0.099182,1.659368,0.025746,-8.132888,-5.936670
8.204131,-1.251221,-0.076294,1.567815,0.008981,-8.114326,-5.920504
8.219891,-0.724792,-0.381470,1.331304,0.013173,-8.095765,-5.888171
8.235703,-0.518799,-0.564575,1.216863,-0.035327,-8.142467,-5.901344
8.251336,-0.495911,-0.679016,1.049016,-0.083826,-8.114925,-5.891764
8.266939,-0.381470,-0.709534,0.980352,-0.129331,-8.141270,-5.866017
8.282627,-0.442505,-0.595093,0.942205,-0.119152,-8.134085,-5.825901
8.298240,-0.587463,-0.427246,0.743840,-0.131127,-8.173603,-5.825302
8.313910,-0.656128,-0.473022,0.774358,-0.113165,-8.163424,-5.819314
8.329494,-0.816345,-0.320435,0.736211,-0.114961,-8.175998,-5.837876
8.345095,-1.098633,-0.236511,0.606511,-0.132325,-8.160430,-5.838475
8.360686,-1.495361,-0.129700,0.728582,-0.108973,-8.158634,-5.912720
8.376264,-1.708984,-0.129700,0.720952,-0.104782,-8.113728,-5.891165
8.392029,-1.800537,0.030518,0.804875,-0.064067,-8.129894,-5.912122
8.407646,-1.625061,-0.175476,0.766729,-0.080832,-8.122110,-5.922899
8.423348,-1.495361,-0.144958,0.652288,-0.055684,-8.121511,-5.924097
8.439013,-1.472473,-0.259399,0.553105,-0.062271,-8.112530,-5.924695
8.454697,-1.586914,-0.640869,0.423406,-0.035327,-8.143066,-5.880388
8.470439,-1.731873,-0.846863,0.171636,-0.082029,-8.146659,-5.995348
8.486198,-0.022888,-1.182556,0.194524,-0.030536,-8.186775,-5.847456
8.502071,-1.800537,-1.464844,-0.057246,0.002994,-8.165819,-5.825302
8.517657,-2.159119,-2.006531,-0.171687,-0.050894,-8.141869,-5.824105
8.533254,-2.609253,-2.128601,-0.217463,-0.210163,-8.199349,-5.882184
8.548869,-3.585815,-1.892090,0.003789,-0.144899,-8.152048,-5.890566
8.564515,-4.333496,-1.029968,0.652288,-0.524509,-8.144264,-5.857036
8.580160,-5.599976,-0.015259,1.689885,-0.166454,-8.198750,-5.835481
8.595789,-6.271362,0.396729,1.613591,0.008383,-8.166418,-5.873801
8.611381,-6.851196,-0.396729,0.759099,-0.219743,-8.169412,-5.920504
8.627046,-6.378174,-0.205994,0.865911,-0.229323,-8.105345,-5.961818
8.642730,-6.599426,0.396729,1.369451,-0.205972,-8.037086,-5.960022
8.658441,-7.072449,0.411987,1.163457,-0.093406,-7.998168,-6.003731
8.674119,-6.996155,0.129700,0.575994,-0.115560,-7.949668,-6.079174
8.689770,-7.164001,-0.114441,0.141118,-0.192799,-7.868238,-6.080372
8.705420,-7.255554,-0.122070,-0.293757,-0.067659,-7.876022,-6.140846
8.721180,-7.324219,-0.808716,-0.804927,-0.070653,-7.902966,-6.133661
8.736974,-6.820679,-0.831604,-0.614192,-0.102387,-7.920330,-6.131865
8.752650,-6.256104,-0.900269,-0.438716,-0.109572,-7.955656,-6.157611
8.768483,-5.752563,-0.602722,-0.080134,-0.111368,-7.919132,-6.146833
8.784086,-5.577087,-0.328064,0.499700,-0.120350,-7.897577,-6.199524
8.799708,-5.271912,-0.022888,0.835393,-0.060474,-7.846683,-6.205512
8.815297,-5.104065,0.259399,1.155828,-0.072449,-7.826924,-6.217486
8.830948,-5.180359,0.259399,1.377080,-0.047302,-7.830516,-6.210301
8.846547,-5.310059,0.152588,1.239751,-0.099393,-7.821535,-6.242634
8.862130,-5.111694,0.205994,1.285527,-0.124541,-7.819140,-6.261795
8.877692,-4.600525,-0.114441,0.995610,-0.100591,-7.835306,-6.268980
8.893308,-4.463196,-0.419617,0.469182,-0.099992,-7.814350,-6.271973
8.908911,-4.425049,-0.480652,-0.034358,-0.166454,-7.731123,-6.261196
8.924614,-4.798889,-0.595093,-0.324275,-0.100591,-7.734117,-6.295325
8.940360,-5.561829,-0.617981,-0.164058,-0.007185,-7.647896,-6.278560
8.956116,-6.195068,-0.274658,0.102971,-0.056882,-7.808362,-6.342028
8.971879,-5.485535,-0.526428,0.225042,-0.162263,-7.842492,-6.365978
8.987678,-4.562378,-0.343323,0.698064,-0.185614,-7.862250,-6.371965
9.003354,-3.784180,-0.305176,0.896428,-0.098795,-7.810758,-6.371367
9.019185,-3.440857,-0.137329,1.026128,-0.136516,-7.740703,-6.306102
9.034829,-4.333496,-0.122070,1.567815,-0.127535,-7.715555,-6.292331
9.050442,-5.012512,0.183105,1.926396,-0.140707,-7.757468,-6.313886
9.066190,-5.584717,0.244141,1.987432,-0.204774,-7.770641,-6.310294
9.081887,-5.767822,0.236511,1.811956,-0.249082,-7.786209,-6.368971
9.097532,-5.722046,0.160217,1.255010,-0.240699,-7.778425,-6.340830
9.113073,-5.867004,0.122070,0.827764,-0.184417,-7.767647,-6.366577
9.128646,-6.340027,-0.198364,0.392888,-0.158071,-7.723938,-6.348614
9.144244,-7.026672,-0.198364,0.217412,-0.204175,-7.700586,-6.383940
9.159832,-7.637024,-0.144958,0.080083,-0.213755,-7.680828,-6.427649
9.175443,-8.064270,-0.267029,-0.255610,-0.173639,-7.648495,-6.433038
9.191043,-8.659363,-0.267029,-0.675227,-0.150886,-7.613168,-6.353404
9.206739,-9.147644,-0.411987,-0.896479,-0.183219,-7.636520,-6.344423
9.222369,-9.346008,-0.373840,-1.010920,-0.215552,-7.646100,-6.489321
9.238082,-9.819031,-0.205994,-1.026179,-0.177231,-7.591613,-6.365379
9.253837,-10.330200,-0.274658,-1.384761,-0.164658,-7.597002,-6.542012
9.269501,-10.833740,-0.816345,-1.842524,-0.225132,-7.562274,-6.595301
9.285223,-11.352539,-0.747681,-1.621272,-0.125140,-7.542515,-6.591708
9.300856,-11.863708,-0.610352,-1.285579,0.036524,-7.503596,-6.653380
9.316431,-11.917114,-0.343323,-0.789668,-0.073048,-7.444918,-6.682120
9.331965,-11.978149,-0.373840,0.118230,-0.217348,-7.410191,-6.716848
9.347548,-11.993408,0.137329,0.789617,-0.118553,-7.418573,-6.761755
9.363108,-12.199402,-0.160217,0.591252,-0.110171,-7.314989,-6.767742
9.378689,-12.825012,-0.251770,0.522588,-0.177231,-7.300020,-6.769538
9.394325,-13.481140,-0.259399,0.804875,-0.138312,-7.364086,-6.836000
9.409902,-13.610840,0.236511,0.820134,-0.051493,-7.344327,-6.877315
9.425588,-11.749268,-0.274658,0.247930,-0.138911,-7.308402,-6.895277
9.441212,-13.702393,-0.648499,-0.141169,-0.264051,-7.240144,-6.905456
9.456832,-14.320374,-0.534058,0.179265,-0.210163,-7.206614,-6.898870
9.472465,-15.319824,-0.350952,0.240300,-0.049098,-7.213799,-6.898870
9.488174,-16.380310,-0.244141,0.209783,-0.132325,-7.219786,-6.953955
9.503954,-17.509460,0.267029,2.223943,-0.238304,-7.213799,-7.016226
9.519568,-18.516541,0.373840,-1.514460,-0.126936,-7.086264,-7.053349
9.535208,-19.248962,0.022888,-0.705745,-0.200583,-7.086863,-7.121606
9.550840,-19.393921,-0.663757,-0.774409,-0.267045,-7.031178,-7.174297
9.566446,-19.882202,-0.205994,-0.530269,-0.119751,-7.073092,-7.236567
9.582064,-20.423889,0.106812,-0.690486,0.150886,-6.609056,-7.224592
9.597619,-20.874023,0.236511,-0.659968,-0.253872,-6.745573,-7.313208
9.613140,-20.927429,-0.518799,0.659917,-0.343087,-6.847361,-7.384460
9.628755,-20.095825,0.701904,0.545476,-0.036524,-6.769523,-7.420984
9.644387,-20.584106,0.045776,-0.370051,-0.072449,-6.605464,-7.456310
9.660092,-20.858765,-0.434875,-0.843074,-0.397573,-6.459368,-7.495828
9.675694,-20.973206,0.007629,-0.125911,0.049098,-6.422843,-7.585641
9.691428,-21.110535,0.083923,-0.782039,0.161664,-6.450387,-7.632344
9.707164,-20.675659,-0.335693,-1.018550,-0.183219,-6.376141,-7.689825
9.722873,-19.508362,-0.221252,2.086614,-0.352667,-6.359375,-7.715571
9.738635,-18.783569,0.328064,0.980352,-0.102986,-6.331833,-7.716170
9.754357,-18.608093,0.236511,-0.156428,-0.097597,-6.206094,-7.724553
9.770298,-19.386292,-0.320435,-0.926997,-0.223934,-6.046825,-7.694615
9.785914,-20.019531,-0.602722,-0.171687,-0.261656,-6.156996,-7.789817
9.801499,-20.362854,0.244141,-0.164058,0.070653,-6.097720,-7.874241
9.817177,-20.614624,-0.778198,-0.721003,-0.032333,-6.102510,-7.947888
9.832812,-19.866943,-0.541687,-0.446345,-0.257465,-6.168373,-8.015548
9.848438,-18.768311,-0.312805,0.057195,-0.173639,-6.146818,-8.017344
9.864015,-18.722534,-0.053406,-0.110652,-0.106578,-5.998925,-7.959863
9.879561,-19.874573,-0.030518,-0.377681,-0.167651,-5.811515,-7.931722
9.895169,-21.316528,0.137329,-0.270869,-0.223934,-5.794750,-7.936512
9.910750,-22.155762,0.373840,-0.141169,-0.039518,-5.808521,-8.074225
9.926448,-22.514343,0.190735,-0.743892,-0.013771,-5.667814,-8.216729
9.942076,-22.285461,-0.099182,-0.377681,-0.227527,-5.639073,-8.285586
9.957797,-21.186829,-0.083923,0.148748,-0.107776,-5.586383,-8.315524
9.973531,-20.454407,-0.114441,0.148748,-0.075443,-5.481601,-8.326302
9.989335,-19.943237,-0.328064,0.453923,-0.167651,-5.421725,-8.337079
10.005078,-19.500732,-0.175476,0.987981,-0.179626,-5.346282,-8.347258
10.020818,-19.561768,0.045776,1.544927,-0.096400,-5.126539,-8.383781
10.036655,-19.844055,0.015259,1.300786,-0.183219,-5.158273,-8.437670
10.052301,-19.302368,-0.205994,1.361821,0.038320,-5.140909,-8.535267
10.067927,-18.470764,-0.312805,0.423406,-0.159269,-5.222340,-8.411923
10.083569,-16.906738,-0.686646,0.629399,-0.335901,-4.982838,-8.623283
10.099182,-13.687134,-0.511169,1.026128,0.028141,-5.020560,-8.544847
10.114806,-14.961243,-0.343323,0.011418,-0.028740,-4.942123,-8.492755
10.130416,-14.579773,-0.122070,0.141118,-0.342488,-4.912784,-8.576581
10.146103,-13.870239,-0.053406,1.010869,-0.147294,-4.849316,-8.603525
10.161676,-13.427734,0.190735,0.156377,-0.035925,-5.067263,-8.220921
10.177313,-12.535095,-0.137329,-0.240352,-0.141306,-4.818181,-8.663401
10.193088,-11.947632,-0.518799,0.461553,-0.189805,-4.681664,-8.756207
10.208824,-11.459351,-0.564575,-1.583125,-0.059875,-4.742139,-8.763392
10.224561,-10.864258,-0.335693,0.034307,-0.148491,-4.727768,-8.742435
10.240299,-10.169983,-0.373840,0.270818,-0.170046,-4.715794,-8.772373
10.256049,-9.948730,-0.267029,0.446294,-0.146695,-4.728966,-8.735250
10.271784,-9.765625,-0.335693,0.370000,-0.146096,-4.685257,-8.739442
10.287535,-9.674072,-0.396729,0.644658,-0.111368,-4.455934,-8.755010
10.303392,-9.712219,-0.320435,0.637029,-0.090412,-4.597240,-8.782553
10.319036,-9.819031,-0.099182,0.598882,-0.021555,-4.372707,-8.478984
10.334659,-8.827209,-0.633240,0.637029,-0.143701,-4.484076,-8.734054
10.350348,-7.766724,-0.663757,0.713323,-0.171843,-4.563710,-8.836440
10.366024,-7.476807,-0.396729,0.949834,-0.050894,-4.314628,-8.412522
10.381655,-6.828308,-0.282288,1.018499,-0.100591,-4.518803,-8.718486
10.397188,-6.126404,-0.427246,1.255010,-0.174836,-4.412225,-8.783152
10.412763,-6.088257,-0.236511,1.110051,-0.160466,-4.488865,-8.808898
10.428428,-5.859375,-0.503540,0.774358,-0.150287,-4.462520,-8.824466
10.444061,-5.744934,-0.526428,0.698064,-0.169448,-4.478686,-8.831651
10.459896,-5.477905,-0.228882,0.736211,-0.195194,-4.406836,-8.884939
10.475510,-5.104065,-0.244141,0.583623,-0.166454,-4.470304,-8.892124
10.491203,-5.325317,0.213623,0.064824,-0.122745,-4.624184,-8.932840
10.506887,-5.050659,-0.068665,-0.133540,-0.245490,-4.520000,-8.825064
10.522553,-4.905701,1.739502,-0.003840,-0.205972,-4.410429,-8.838237
10.538456,-5.218506,-0.137329,-0.072505,-0.085023,-4.388873,-8.825663
10.554122,-5.302429,-0.091553,-0.461604,-0.162861,-4.396059,-8.878952
10.569875,-5.096436,-0.259399,-0.499751,-0.239502,-4.348757,-8.882545
10.585631,-5.058289,-0.137329,-0.385310,-0.201780,-4.262536,-8.904099
10.601247,-5.065918,-0.221252,-0.415828,-0.147294,-4.337380,-9.089115
10.616831,-4.783630,-0.267029,-0.171687,-0.131127,-4.321813,-8.955593
10.632467,-4.440308,-0.167847,0.263188,-0.095801,-4.274511,-8.989721
10.648106,-4.096985,-0.198364,0.591252,-0.101788,-4.255949,-8.969963
10.663823,-3.700256,-0.183105,0.781987,-0.198787,-4.200864,-8.954994
10.679433,-3.326416,-0.427246,1.155828,-0.114362,-4.398453,-9.237007
10.695047,-3.036499,-0.427246,1.308416,-0.144899,-3.999084,-9.344185
10.710682,-3.204346,-0.473022,1.155828,-0.141306,-4.032015,-9.035227
10.726401,-3.158569,-0.427246,1.110051,-0.218546,-4.132606,-9.085523
10.742101,-2.792358,-0.267029,0.972722,-0.284409,-4.160149,-9.080732
10.757845,-3.326416,0.030518,-1.445796,-0.156275,-3.938610,-9.013672
10.773518,-1.770020,-0.480652,-0.156428,-0.141905,-4.297264,-8.978944
10.789283,-1.182556,-0.488281,-0.080134,-0.083826,-4.285887,-8.891526
10.805169,-0.762939,-0.335693,2.277349,-0.096998,-4.072731,-8.891526
10.820818,-0.816345,-0.312805,0.209783,-0.211959,-4.179908,-8.893322
10.836444,-0.961304,-0.099182,0.080083,-0.213755,-4.274511,-8.870569
10.852114,-1.159668,-0.350952,0.041936,-0.176633,-4.139193,-8.942420
10.867713,-1.098633,-0.358582,0.278447,-0.123942,-4.215234,-8.997505
10.883345,-0.946045,-0.328064,0.568364,-0.086819,-4.205654,-9.002295
10.898928,-0.793457,-0.175476,0.453923,-0.161065,-4.217031,-8.992117
10.914556,-0.328064,-0.320435,0.392888,-0.228724,-4.175716,-8.993314
10.930149,-0.411987,-0.465393,0.141118,-0.223934,-4.212839,-8.989721
10.945767,-0.572205,-0.282288,-0.095393,-0.172441,-4.208648,-8.983135
10.961367,-0.762939,-0.289917,-0.041987,-0.159269,-4.223018,-8.969364
10.977075,-1.251221,-0.297546,0.102971,-0.170046,-4.243975,-8.966969
10.992760,-1.838684,-0.183105,0.019048,-0.209564,-4.215833,-8.962778
11.008463,-2.517700,-0.137329,-0.362422,-0.237107,-4.232598,-8.992117
11.024209,-2.906799,-0.183105,-0.164058,-0.207169,-4.258944,-9.006487
11.040005,-3.051758,-0.274658,0.049565,-0.162861,-4.221222,-9.034030
11.055752,-3.128052,-0.358582,0.316594,-0.150287,-4.234395,-9.037024
11.071537,-3.204346,-0.213623,0.339482,-0.192200,-4.202661,-8.991518
11.087204,-3.311157,-0.007629,0.209783,-0.214953,-4.127217,-8.998703
11.102840,-4.013062,-0.007629,0.240300,-0.220941,-4.114644,-9.004690
11.118534,-4.470825,-0.251770,0.431035,-0.225731,-4.110452,-8.999302
11.134112,-5.027771,-0.053406,0.339482,-0.129331,-4.091292,-9.025647
11.149777,-5.493164,-0.129700,-0.156428,-0.124541,-4.125421,-9.037024
11.165380,-5.668640,-0.061035,-0.461604,-0.215552,-4.103866,-9.035227
11.180962,-5.798340,-0.160217,-0.583674,-0.235311,-4.107459,-9.018462
11.196522,-5.920410,-0.160217,-0.659968,-0.179028,-4.088897,-9.029240
11.212098,-6.225586,-0.244141,-0.324275,-0.128732,-4.046385,-9.045406
11.227767,-6.340027,-0.190735,0.118230,-0.142504,-4.044589,-9.045406
11.243393,-6.797791,-0.076294,0.461553,-0.153880,-4.026627,-9.062171
11.259109,-7.072449,-0.053406,0.308965,-0.217348,-4.015849,-9.081930
11.274757,-7.553101,-0.091553,0.049565,-0.232317,-4.000281,-9.065165
11.290489,-7.934570,-0.152588,-0.072505,-0.165256,-3.954776,-9.127436
11.306296,-8.605957,-0.083923,-0.095393,-0.140707,-3.795507,-9.106479
11.322054,-8.987427,-0.053406,-0.072505,-0.083826,-3.770958,-9.216051
11.337958,-8.689880,0.007629,0.034307,-0.178429,-3.714675,-9.166354
11.353589,-8.407593,0.167847,2.277349,-0.195194,-3.710484,-9.152583
11.369199,-8.033752,-0.122070,0.286077,-0.144300,-3.697311,-9.153781
11.384938,-7.629395,-0.106812,-0.064875,-0.150886,-3.741020,-9.196292
11.400574,-7.255554,-0.213623,-0.049617,-0.133522,-3.725453,-9.174138
11.416192,-7.408142,-0.122070,-0.041987,-0.137714,-3.694318,-9.169947
11.431747,-7.331848,-0.160217,-0.125911,-0.172441,-3.630850,-9.140009
11.447369,-7.598877,-0.160217,-0.240352,-0.237107,-3.602708,-9.162762
11.462979,-7.606506,-0.213623,-0.324275,-0.246687,-3.611690,-9.212459
11.478562,-7.865906,-0.213623,-0.431086,-0.182620,-3.691324,-9.226829
11.494283,-8.415222,-0.053406,-0.698115,-0.170046,-3.755391,-9.247187
11.509938,-9.010315,0.396729,-1.369502,-0.205972,-3.788921,-9.216051
11.525670,-10.322571,0.541687,-1.956965,-0.244292,-3.730243,-9.163960
11.541392,-11.734009,0.282288,-2.056148,-0.209564,-3.658991,-9.180724
11.557171,-13.015747,0.335693,-1.537349,-0.116757,-3.627257,-9.218446
11.572954,-14.122009,0.030518,-1.201655,-0.096400,-3.588937,-9.263951
11.588670,-15.563965,0.129700,-0.476863,-0.119152,-3.622467,-9.198089
11.604607,-16.006470,0.244141,-0.118281,-0.107776,-3.493735,-9.262156
11.620296,-16.525269,0.007629,-0.186946,-0.110171,-3.463797,-9.413640
11.635865,-17.044067,0.160217,0.057195,-0.181423,-3.369792,-9.372925
11.651752,-17.547607,1.907349,0.133489,-0.258662,-3.279979,-9.360351
11.667536,-18.455505,-0.114441,-0.194575,-0.210762,-3.276387,-9.310056
11.683226,-19.607544,0.144958,-0.965144,-0.068258,-3.263813,-9.378314
11.698827,-21.080017,0.755310,-1.651790,-0.285007,-3.202141,-9.389690
11.714355,-22.712708,0.656128,-1.285579,-0.248483,-3.073409,-9.416634
11.729911,-23.735046,0.083923,-0.568416,-0.131726,-2.951263,-9.438787
11.745454,-24.330139,0.205994,-1.056697,-0.087418,-2.820136,-9.492676
11.761040,-24.696350,0.617981,-0.835444,-0.055085,-2.838098,-9.377715
11.776618,-24.917603,0.236511,-0.476863,-0.095801,-2.912344,-9.517224
11.792366,-25.512695,0.144958,-0.797297,0.029339,-2.802772,-9.504052
11.808016,-26.985168,0.717163,-0.888850,-0.140707,-2.635719,-9.541774
11.823710,-28.778076,0.740051,-0.560786,-0.238304,-2.581831,-9.468127
11.839401,-30.075073,-0.144958,-0.560786,-0.120350,-2.394421,-9.625599
11.855106,-30.845642,0.526428,-0.789668,0.117356,-2.380649,-9.663321
11.870838,-30.509949,0.526428,-0.286128,-0.126337,-2.124981,-9.732178
11.886601,-32.989502,0.350952,0.019048,0.008383,-2.026186,-9.450763
11.902390,-31.517029,-0.106812,-0.186946,0.044308,-1.825604,-9.608834
11.917979,-33.073425,0.129700,-0.469233,-0.140109,-1.686094,-9.675895
11.933678,-32.165527,-0.190735,0.255559,-0.155676,-1.911824,-9.301074
11.949269,-30.426025,-0.740051,0.926946,-0.139510,-1.460962,-9.847737
11.964918,-28.953552,-0.907898,0.705693,-0.077239,-1.444795,-9.769300
11.980533,-27.824402,-0.701904,0.759099,-0.120350,-1.308878,-9.862107
11.996117,-27.549744,-0.068665,1.239751,-0.149090,-1.217269,-9.810615
12.011776,-28.076172,-1.197815,2.376531,-0.062869,-1.217269,-9.681882
12.027401,-28.244019,-1.647949,2.643559,-0.216151,-0.981958,-9.839355
12.043216,-28.381348,-0.862122,0.415776,-0.288600,-1.544189,-10.036345
12.058869,-27.824402,-0.473022,1.041387,-0.320933,-0.863405,-10.128553
12.074623,-27.458191,0.076294,-0.034358,-0.307161,-0.800535,-9.915996
12.090372,-26.977539,0.114441,0.041936,-0.292192,-0.625699,-9.870490
12.106098,-27.282715,0.190735,0.049565,-0.227527,-0.709525,-9.709425
12.121812,-27.038574,-0.633240,-0.408198,-0.128134,-0.598755,-9.807022
12.137426,-26.351929,0.160217,-0.499751,-0.041913,-0.399968,-9.710024
12.153734,-25.993347,0.785828,-0.324275,-0.043709,-0.268841,-9.719006
12.169391,-25.123596,0.343323,-0.515010,-0.101788,-0.239502,-9.808220
12.185037,-24.391174,-0.183105,-0.164058,-0.138911,-0.183818,-9.837559
12.200793,-24.459839,-0.343323,0.690435,-0.392783,-0.613724,-9.735770
12.216504,-24.497986,-0.785828,0.408147,-0.290995,-0.016765,-9.846539
12.232100,-23.002625,-0.274658,0.041936,-0.058678,0.169448,-9.777084
12.247733,-22.193909,0.602722,-1.079585,0.020358,0.221539,-9.755529
12.263314,-21.240234,0.038147,-0.721003,-0.050295,0.292192,-9.773492
12.278975,-20.385742,-0.389099,0.743840,-0.061672,0.372426,-9.825583
12.294631,-19.104004,-1.289368,0.972722,0.273631,0.320334,-9.851929
12.310304,-17.776489,-1.113892,1.003240,0.107776,0.408950,-9.818997
12.326014,-17.356873,-0.381470,0.850652,-0.123942,0.527503,-9.735770
12.341714,-17.494202,-1.129150,1.300786,-0.239502,0.427511,-9.603445
12.357445,-16.326904,-1.296997,1.819585,-0.283810,0.585582,-9.774690
12.373138,-15.800476,-1.777649,2.521489,-0.101788,0.623903,-9.793850
12.388815,-15.548706,-1.602173,2.384160,-0.169448,0.682581,-9.711820
12.404484,-17.127991,-0.900269,2.078984,-0.122146,0.672402,-9.643562
12.420218,-13.351440,-0.701904,1.811956,-0.167651,1.090931,-9.549558
12.435847,-12.168884,-0.679016,0.614141,-0.123942,1.017285,-9.659130
12.451516,-9.963989,-0.228882,1.102422,-0.151485,1.057401,-9.694456
12.467247,-7.965088,-0.389099,-1.468684,0.031734,0.985551,-9.787862
12.482841,-6.637573,-0.068665,-0.644709,-0.054487,0.965792,-9.751937
12.498471,-5.706787,0.999451,-1.194026,-0.163460,0.903521,-9.699845
12.514062,-4.692078,0.892639,-1.667048,-0.234113,0.928070,-9.684278
12.529696,-4.585266,0.396729,-1.270320,-0.173040,0.922681,-9.645358
12.545281,-4.638672,0.122070,-0.331904,-0.127535,0.917292,-9.681284
12.560914,-4.768372,0.114441,-0.507380,-0.155676,0.889750,-9.742955
12.576598,-4.570007,0.175476,-0.385310,-0.137115,0.898132,-9.766307
12.592362,-4.058838,0.099182,2.201055,-0.105381,0.890947,-9.838757
12.608064,-3.265381,-0.442505,-1.483943,-0.082628,0.780776,-9.801633
12.623796,-3.250122,-0.350952,-0.103022,-0.092807,0.864602,-9.736968
12.639520,-3.143311,0.114441,-0.545527,-0.150886,0.908910,-9.695055
12.655464,-2.983093,0.572205,-0.988032,-0.198787,0.875380,-9.754930
12.671391,-3.089905,-0.053406,-0.721003,-0.156275,1.312471,-9.725592
12.687090,-3.562927,0.106812,-0.247981,-0.010179,0.794548,-9.898632
12.702863,-4.295349,0.068665,-0.431086,-0.008383,0.907712,-9.827978
12.718448,-4.905701,0.083923,-0.309016,-0.177830,0.894540,-9.793850
12.734080,-4.966736,-0.328064,0.125859,-0.109572,0.865800,-9.780677
12.749691,-4.631042,-0.686646,0.385259,-0.007784,0.938848,-9.892644
12.765302,-4.707336,-0.724792,0.652288,-0.135319,0.953218,-9.799837
12.780879,-5.058289,-0.755310,0.667546,-0.125140,0.939446,-9.735770
12.796445,-5.249023,-0.610352,0.637029,-0.218546,0.971779,-9.759122
12.812043,-5.798340,-0.907898,0.820134,-0.197589,0.935255,-9.787862
12.827599,-6.797791,-0.953674,0.652288,-0.133522,0.880768,-9.727387
12.843270,-7.499695,-0.366211,0.316594,-0.005988,0.947230,-9.756726
12.858941,-8.255005,0.106812,-0.110652,-0.182620,0.983155,-9.739962
12.874650,-9.094238,0.213623,-0.247981,-0.226329,1.017883,-9.772893
12.890359,-9.613037,0.289917,-0.324275,-0.139510,1.053809,-9.721400
12.906115,-9.788513,0.389099,-0.377681,-0.031135,1.056204,-9.700443
12.921814,-10.696411,0.625610,-0.942256,-0.040715,1.031056,-9.742955
12.937516,-11.405945,0.732422,-1.132991,-0.196392,1.055605,-9.594464
12.953382,-12.565613,0.762939,-0.804927,-0.134121,1.146017,-9.751937
12.969021,-13.145447,0.419617,-0.789668,-0.149090,1.174158,-9.771695
12.984677,-15.525818,0.335693,-0.507380,-0.097597,1.265169,-9.771695
13.000262,-14.450073,-0.144958,0.095342,-0.091011,1.304088,-9.789060
13.015822,-15.228271,-0.350952,0.484441,-0.092807,1.307681,-9.714215
13.031355,-16.136169,-0.473022,0.507329,-0.049098,1.298101,-9.688469
13.046900,-16.685486,-0.366211,0.530217,-0.148491,1.402883,-9.839355
13.062487,-17.761230,-0.473022,0.514959,-0.216749,1.492097,-9.647155
13.078020,-18.157959,-0.694275,1.132939,-0.195793,1.584904,-9.613026
13.093678,-18.791199,-0.747681,0.499700,-0.090412,1.687890,-9.643562
13.109285,-19.462585,-0.152588,0.041936,-0.182620,1.692081,-9.638772
13.124937,-20.622253,0.160217,0.499700,-0.140707,1.703458,-9.525008
13.140626,-20.523071,-0.328064,0.064824,-0.140707,1.868714,-9.632785
13.157477,-21.133423,-0.213623,0.133489,-0.133522,1.934577,-9.692660
13.173333,-21.881104,0.099182,0.484441,-0.175435,1.971700,-9.519620
13.189142,-21.812439,-0.152588,-0.148799,-0.167651,2.163900,-9.609433
13.204920,-21.949768,-0.404358,0.324224,-0.158071,2.168092,-9.562131
13.220704,-22.369385,-0.518799,0.461553,-0.105381,2.276466,-9.533990
13.236345,-23.002625,-0.572205,0.003789,-0.075443,2.344724,-9.464535
13.252004,-22.941589,-0.160217,0.530217,-0.101190,2.362687,-9.450763
13.267645,-23.498535,-1.121521,1.064275,-0.150886,2.441124,-9.361548
13.283267,-23.841858,-1.510620,1.110051,-0.098196,2.525548,-9.504651
13.298850,-24.101257,-1.647949,1.575444,-0.138911,2.586022,-9.523811
13.314475,-23.437500,-1.380920,1.110051,-0.016765,2.690206,-9.501059
13.330055,-23.521423,-1.495361,0.431035,-0.235311,2.819537,-9.295087
13.345661,-23.002625,-0.892639,1.026128,-0.186213,2.771636,-9.139410
13.361281,-22.766113,-1.441956,1.384709,-0.213157,2.972818,-9.184317
13.376992,-23.513794,-1.731873,1.407598,-0.165855,3.015928,-9.138812
13.392694,-23.536682,-1.319885,1.392339,-0.091011,3.035687,-9.219045
13.408419,-23.773193,-1.388550,1.232122,-0.063468,3.122507,-9.152583
13.424139,-22.735596,-1.037598,1.148198,-0.215552,3.070415,-9.007685
13.439932,-23.223877,-1.106262,1.186345,-0.241897,3.233276,-9.207668
13.455655,-23.513794,-0.946045,0.873540,-0.280816,3.236869,-9.084325
13.471358,-23.208618,-0.755310,0.675176,-0.076042,3.430866,-9.037622
13.486954,-23.170471,-0.862122,0.514959,-0.079634,3.527265,-9.048999
13.502554,-23.490906,-0.953674,1.277898,-0.112566,3.727848,-8.481379
13.518166,-22.102356,-1.304626,1.277898,-0.149689,3.884123,-9.124441
13.533954,-22.468567,-0.953674,0.514959,-0.110770,3.693719,-9.013672
13.549542,-22.750854,-0.396729,0.850652,-0.342488,3.431464,-9.136416
13.565188,-24.024963,-0.526428,0.804875,-0.290396,3.792513,-9.001098
13.580752,-23.971558,-0.465393,0.118230,-0.147294,3.796106,-9.067560
13.596422,-22.491455,0.251770,0.209783,-0.185614,3.896098,-9.047202
13.612053,-22.750854,0.091553,-0.347163,-0.212558,4.027824,-8.828656
13.627811,-21.629333,0.610352,-0.492122,-0.123344,4.089496,-8.838836
13.644224,-20.973206,0.671387,-0.446345,-0.113763,4.114644,-8.890927
13.660110,-20.050049,0.068665,-0.537898,-0.116158,4.202062,-8.633463
13.675901,-19.905090,-0.320435,0.789617,-0.090412,4.167334,-8.629272
13.691620,-18.959045,-1.258850,1.537297,-0.080233,4.459527,-8.610710
13.707380,-19.622803,-2.197266,2.117131,-0.074246,4.406237,-8.450842
13.723074,-19.783020,-1.899719,1.804326,-0.356858,4.520000,-8.533470
13.738715,-19.233704,-2.082825,1.659368,-0.215552,4.494254,-8.626876
13.754404,-18.692017,-1.358032,0.835393,-0.171843,4.566105,-8.501737
13.770053,-17.951965,-1.091003,0.667546,-0.232916,4.684060,-8.577778
13.785678,-18.402100,-0.648499,0.850652,-0.264650,4.688251,-8.302351
13.801376,-17.051697,-0.366211,0.202153,-0.347877,4.869075,-8.452040
13.816937,-15.884399,-0.732422,0.087712,-0.196990,5.007387,-8.176014
13.832497,-13.420105,-0.434875,0.530217,-0.068258,4.963678,-8.412522
13.848041,-13.008118,-0.282288,0.385259,-0.047900,4.854704,-8.214932
13.863590,-12.390137,-0.511169,0.286077,-0.200583,4.989424,-8.256845
13.879203,-12.886047,0.251770,-0.026729,-0.163460,4.972061,-8.151464
13.894811,-12.886047,0.015259,-0.247981,-0.133522,5.047503,-8.217328
13.910447,-12.039185,0.030518,-0.049617,-0.079634,5.051695,-8.252056
13.926044,-11.528015,0.030518,-0.171687,-0.110171,5.006788,-8.195174
13.941685,-10.749817,-0.236511,-0.072505,-0.104183,5.077441,-8.228106
13.957315,-10.353088,-0.602722,0.202153,-0.210762,5.066664,-8.074225
13.972936,-10.513306,-0.442505,0.370000,-0.144899,5.119354,-8.332289
13.988662,-11.611938,-0.816345,0.286077,-0.120350,5.393584,-8.229303
14.004514,-9.101868,-1.174927,0.095342,-0.144300,5.281018,-8.194575
14.020234,-7.629395,-0.465393,0.019048,-0.190404,5.147496,-8.267623
14.035941,-7.286072,-0.862122,0.301335,-0.251477,5.172644,-8.150268
14.051704,-6.126404,-0.610352,-0.186946,-0.210762,5.181026,-8.214932
14.067353,-6.233215,-0.312805,0.011418,-0.125739,5.257667,-8.161644
14.082952,-5.111694,0.061035,-0.217463,-0.168849,5.176835,-8.244870
14.098491,-5.294800,0.022888,-0.431086,-0.211959,5.098398,-8.167032
14.114047,-5.989075,-0.038147,-0.415828,-0.256866,5.062472,-8.104163
14.129674,-7.339478,0.053406,-0.095393,-0.199984,5.101392,-8.091589
14.145266,-7.896423,0.015259,0.080083,-0.159269,5.208569,-8.163440
14.161100,-7.156372,-0.274658,0.499700,-0.049098,4.781656,-8.519699
14.176914,-6.477356,-0.564575,0.247930,-0.127535,5.107978,-8.011955
14.192638,-7.186890,-0.480652,0.110601,-0.204774,5.261858,-8.030517
14.208369,-6.690979,0.671387,0.102971,-0.171244,5.351671,-7.997585
14.224754,-7.530212,0.495911,-0.469233,-0.265847,5.307962,-8.028121
14.240623,-7.759094,1.167297,-0.865962,-0.240699,5.364245,-8.123922
14.256338,-5.935669,1.426697,-0.614192,-0.137714,5.379813,-8.050874
14.271983,-7.514954,1.037598,-0.705745,-0.162861,5.453459,-8.159847
14.287617,-7.392883,0.160217,-0.446345,-0.152084,5.487588,-7.944296
14.303277,-6.942749,0.167847,0.301335,-0.047302,5.600154,-7.926333
14.318913,-7.202148,-0.671387,0.347112,-0.077838,5.580396,-7.908969
14.334589,-6.591797,-0.762939,0.652288,-0.068258,5.562433,-7.912561
14.350184,-5.615234,-1.075745,0.751470,-0.062869,5.604346,-8.005368
14.365784,-5.310059,-1.220703,0.621770,-0.148491,5.574408,-7.744910
14.381396,-4.791260,-1.312256,0.469182,-0.151485,5.650450,-7.827538
14.397015,-4.524231,-0.701904,0.507329,-0.061073,5.647456,-7.884420
14.412669,-3.524780,-0.732422,0.530217,-0.148491,5.669011,-7.870649
14.428320,-3.196716,-0.610352,0.331853,-0.139510,5.576204,-7.875439
14.444035,-2.685547,-0.602722,0.301335,-0.167053,5.603747,-7.899389
14.459742,-2.273560,-0.701904,0.461553,-0.157473,5.599555,-7.810773
14.475493,-2.212524,-1.205444,0.400518,-0.208965,5.669011,-7.862266
14.491210,-2.235413,-1.121521,0.583623,-0.159868,5.659431,-7.819755
14.506976,-1.777649,-1.091003,0.652288,-0.128134,5.692961,-7.812570
14.522748,-1.312256,-1.022339,-1.552607,-0.179028,5.706134,-7.826341
14.538450,-0.869751,-1.007080,0.339482,-0.174836,5.646258,-7.759280
14.554103,-1.228333,-0.480652,0.164006,-0.186812,5.643265,-7.770657
14.569767,-1.068115,-0.091553,0.041936,-0.128732,5.535489,-7.746108
14.585560,-1.007080,-0.198364,-0.186946,-0.220342,5.677992,-7.822150
14.601242,-0.350952,-0.343323,-0.064875,-0.167651,5.666018,-7.846100
14.616829,-0.038147,-0.320435,-0.095393,-0.157473,5.649252,-7.852686
14.632428,-0.007629,-0.602722,0.087712,-0.192200,5.631888,-7.835921
14.648060,-0.007629,-0.411987,0.240300,-0.205972,5.648654,-7.860470
14.663728,-0.007629,-0.198364,0.019048,-0.196392,5.665419,-7.886815
14.679359,0.724792,-0.015259,-0.202205,-0.177231,5.670209,-7.886217
14.695092,1.686096,0.144958,-0.209834,-0.196392,5.618716,-7.882624
14.710783,1.449585,0.068665,-0.301387,-0.182021,5.582790,-7.883821
14.726550,1.235962,0.343323,-0.270869,-0.195194,5.591173,-7.883223
14.742275,1.174927,0.480652,-0.324275,-0.179028,5.613327,-7.899988
14.757969,1.281738,0.350952,-0.362422,-0.108375,5.609735,-7.913160
14.773645,1.655579,0.221252,-0.286128,-0.141905,5.606142,-7.888013
14.789316,1.739502,0.183105,-0.171687,-0.176034,5.569019,-7.857476
14.805103,0.961304,0.007629,-0.171687,-0.210163,5.553452,-7.857476
14.820721,0.137329,-0.099182,-0.057246,-0.192799,5.570217,-7.840112
14.836400,-0.114441,0.076294,-0.125911,-0.152084,5.601951,-7.899988
14.852061,-1.922607,0.091553,-0.156428,-0.131127,5.619315,-7.875439
14.867625,0.396729,-0.030518,-0.118281,-0.141905,5.602550,-7.906574
14.883261,0.511169,-0.205994,-0.148799,-0.149689,5.572013,-7.899988
14.898850,0.160217,-0.350952,0.049565,-0.124541,5.572612,-7.943697
14.914494,0.297546,-0.335693,0.156377,-0.107776,5.574408,-7.911364
14.930204,0.602722,-0.534058,0.011418,-0.152084,5.603148,-7.909568
14.945861,0.831604,-0.671387,0.209783,-0.162263,5.597759,-7.867655
14.961617,0.854492,-0.625610,0.339482,-0.146096,5.589975,-7.850291
14.977272,0.671387,-0.854492,0.362371,-0.196990,5.607339,-8.002974
14.992988,0.503540,-1.190186,0.575994,-0.152084,5.636080,-7.876637
15.008706,0.679016,-1.251221,0.560735,-0.147294,5.660030,-7.880827
15.024437,1.319885,-1.121521,0.484441,-0.139510,5.648654,-7.889210
15.040120,1.686096,-0.923157,0.408147,-0.179028,5.626500,-7.873044
15.055801,1.808167,-0.785828,0.278447,-0.212558,5.581593,-7.879630
15.071576,1.686096,-0.488281,0.072454,-0.237706,5.592969,-7.847297
15.087235,1.579285,-0.068665,-0.019099,-0.202379,5.619913,-7.840711
15.102899,2.044678,0.061035,0.026677,-0.183818,5.806126,-7.837717
15.118547,2.693176,-0.061035,0.019048,-0.204175,5.530100,-7.835921
15.134162,3.463745,-0.335693,0.125859,-0.197589,5.549260,-7.785027
15.149753,4.135132,-0.625610,0.202153,-0.168250,5.647456,-7.802391
15.165454,4.417419,-0.701904,0.186895,-0.176633,5.625901,-7.792810
15.181062,4.692078,-0.541687,0.171636,-0.156874,5.804330,-7.823347
15.196622,5.729675,-0.205994,0.095342,-0.129930,5.676196,-7.825143
15.212239,7.392883,0.045776,-0.156428,-0.171843,5.774392,-7.801193
15.227868,9.330750,0.419617,-0.354792,-0.208367,5.777985,-7.766466
15.243519,11.558533,0.419617,-0.118281,-0.213157,5.773195,-7.751497
15.259195,13.229370,0.045776,0.194524,-0.202379,5.736072,-7.813169
15.274840,15.060425,0.289917,0.087712,-0.147892,5.789361,-7.731738
15.290516,17.448425,-0.030518,0.141118,-0.170645,5.742059,-7.737725
15.306168,19.508362,-0.122070,-0.072505,-0.174238,5.648055,-7.753293
15.321891,20.469666,-0.244141,-0.270869,-0.176034,5.639672,-7.740120
15.337490,20.645142,0.137329,-0.278499,-0.178429,5.474416,-7.764071
15.353110,21.919250,0.167847,-0.606562,-0.183219,5.449268,-7.751497
15.368675,23.231506,0.381470,-1.094844,-0.209564,5.419929,-7.849692
15.384244,23.727417,1.296997,-1.697566,-0.373623,5.190606,-7.789817
15.399804,23.239136,1.693726,-2.178218,-0.383203,4.937333,-8.007764
15.415364,23.429871,2.868652,-2.880122,-0.264650,5.090015,-8.214932
15.430911,23.078918,3.524780,-2.460505,-0.341889,4.772675,-8.264629
15.446500,26.176453,3.524780,-3.063228,-0.150886,4.917574,-8.520298
15.462102,28.419495,3.143311,-3.078486,-0.066462,4.884044,-8.814885
15.477730,29.495239,3.952026,-2.712276,-0.072449,4.715794,-8.607716
15.493378,30.036926,3.517151,-2.742793,0.032333,4.524192,-8.619691
15.509060,30.075073,3.822327,-3.597285,-0.011975,4.363127,-8.539458
15.524777,29.777527,4.127502,-3.276851,0.049697,4.302054,-8.483175
15.540462,29.739380,3.623962,-3.559138,0.046104,4.369713,-8.576581
15.556171,29.060364,4.501343,-4.230525,0.167053,4.265530,-8.716689
15.572017,29.151917,5.126953,-3.665950,-0.046104,4.111650,-9.041813
15.587670,28.205872,5.508423,-3.780391,-0.201780,3.794310,-8.822669
15.603330,26.695251,4.333496,-3.963496,-0.136516,3.826643,-9.027443
15.618954,27.435303,4.302979,-3.566768,0.001796,3.797303,-8.957389
15.634529,26.802063,3.952026,-3.009822,-0.060474,3.687731,-8.906495
15.650116,25.154114,3.608704,-3.116633,-0.005389,3.523673,-8.720881
15.665713,24.688721,2.899170,-3.002192,-0.048499,3.710484,-9.388493
15.681378,24.177551,3.303528,-2.857234,0.008383,3.385959,-9.085523
15.696982,23.406982,2.754211,-2.391841,0.110770,3.359614,-9.289698
15.712659,22.804260,1.136780,-1.850154,-0.010778,3.231480,-9.210662
15.728476,21.903992,1.098633,-1.491572,-0.107776,3.211123,-9.199286
15.744188,21.324158,1.602173,-1.094844,-0.032333,3.193758,-9.181922
15.759767,21.362305,1.220703,-1.194026,0.008981,3.258424,-9.258563
15.775367,20.568848,1.152039,-0.957515,0.065863,3.068020,-9.265149
15.791076,19.882202,0.404358,-0.446345,0.271236,3.008145,-9.335802
15.806709,19.721985,0.061035,0.133489,0.259261,2.932701,-9.305265
15.822458,17.837524,-0.892639,0.843022,0.143701,2.924319,-9.201681
15.838032,17.028809,-1.510620,0.926946,0.149689,2.870431,-9.190904
15.853699,17.616272,-1.716614,1.560186,-0.148491,2.933899,-9.166354
15.869299,16.471863,-1.899719,2.162908,0.065863,2.774031,-9.116657
15.884898,16.166687,-2.845764,1.583074,-0.061672,2.765050,-9.393283
15.900449,16.868591,-2.891541,2.346013,-0.089214,2.839894,-9.501657
15.916020,16.738892,-2.891541,2.986882,0.050894,2.747087,-9.448967
15.931581,17.150879,-3.723145,3.017400,-0.087418,2.755470,-9.508244
15.947152,18.249512,-3.730774,2.597783,-0.013173,2.847080,-9.360950
15.962748,18.997192,-2.586365,2.201055,-0.165855,2.748884,-9.362147
15.978341,20.164490,-2.563477,1.949285,-0.144300,2.730921,-9.387295
15.993952,19.592285,-0.167847,1.628850,0.002395,2.476450,-9.328617
16.009596,19.004822,-1.083374,0.575994,-0.104183,2.487228,-9.405856
16.025237,17.471313,-0.411987,0.141118,-0.107776,2.345323,-9.289099
16.040929,16.952515,-0.358582,-0.064875,-0.137714,2.350113,-9.443578
16.056569,16.983032,-0.488281,0.392888,-0.049697,2.370471,-9.442380
16.072428,17.295837,-0.801086,0.484441,-0.086221,2.264491,-9.491478
16.088028,17.700195,-0.343323,-0.125911,-0.044907,2.196832,-9.599255
16.103668,17.784119,-0.244141,0.263188,-0.132924,2.154919,-9.569915
16.119264,17.951965,-0.305176,0.400518,-0.235909,2.136956,-9.624402
16.134839,17.601013,-0.137329,-0.171687,0.133522,2.005230,-9.632785
16.150445,18.836975,0.343323,-0.469233,-0.008383,2.096241,-9.673500
16.166052,19.577026,-0.152588,0.186895,-0.026345,2.035767,-9.484293
16.181709,20.248413,-0.854492,0.148748,0.103585,1.987267,-9.510039
16.197323,21.224976,-0.885010,0.530217,-0.031135,1.967509,-9.507046
16.213055,21.102905,-0.740051,1.140569,-0.271835,1.890269,-9.539977
16.228743,21.308899,-1.457214,1.056646,-0.213157,1.819017,-9.620810
16.244420,21.873474,-0.846863,1.064275,-0.198787,1.774709,-9.593865
16.260129,22.346497,-0.640869,0.263188,-0.169448,1.710643,-9.818398
16.275837,22.514343,0.190735,-0.789668,-0.096400,1.530417,-9.560934
16.291606,23.185730,0.465393,-0.705745,-0.077838,1.506467,-9.657932
16.307325,24.032593,0.343323,-0.965144,-0.025148,1.460363,-9.645957
16.323100,25.146484,0.312805,-0.858333,0.024549,1.389710,-9.658531
16.338738,25.421143,0.190735,-0.499751,0.000000,1.247805,-9.711820
16.354336,25.360107,-0.343323,0.087712,-0.179626,1.129252,-9.598656
16.370018,25.497437,-0.625610,0.194524,-0.165855,1.089734,-9.655537
16.385646,25.764465,-0.450134,0.186895,-0.197589,1.055006,-9.720801
16.401285,25.680542,-0.137329,-0.499751,-0.125739,0.903521,-9.708826
16.416864,25.962830,0.785828,-1.400020,-0.129930,0.844843,-9.773492
16.432422,26.222229,0.320435,-1.239802,0.082029,0.738864,-9.806423
16.448052,26.451111,0.259399,-1.819636,0.076641,0.670605,-9.801633
16.463658,26.672363,0.251770,-0.400569,-0.170645,0.646057,-9.727986
16.479366,27.137756,-1.037598,0.797246,-0.072449,0.570015,-9.680685
16.494991,28.320312,-1.327515,0.736211,-0.025746,0.514330,-9.845343
16.510687,29.129028,-0.556946,1.079534,-0.131726,0.427511,-9.844744
16.526380,29.754639,-0.526428,0.720952,-0.164059,0.301772,-9.730381
16.542087,29.701233,-0.564575,-0.156428,-0.186213,0.028141,-9.760918
16.557896,29.777527,-0.099182,-0.667598,-0.099393,0.079036,-9.816602
16.573739,30.548096,0.701904,-0.759150,-0.171244,0.009580,-9.858515
16.589577,31.234741,-0.450134,-0.003840,-0.004790,-0.098196,-9.931563
16.605206,32.859802,-0.831604,0.743840,0.022154,-0.022753,-9.801035
16.620848,34.156799,-1.251221,1.155828,0.209564,-0.155676,-9.714814
16.636527,35.354614,-1.075745,0.118230,0.040117,-0.263452,-9.739962
16.652108,35.942078,-0.862122,1.499150,-0.122146,-0.368833,-9.771695
16.667801,34.584045,-3.669739,1.926396,0.058678,-0.714315,-9.570514
16.683492,35.377502,-1.281738,1.033757,-0.064666,-0.600551,-9.762115
16.699148,36.125183,-0.785828,2.025578,-0.192200,-0.805924,-9.786066
16.714728,38.055420,-1.228333,0.987981,-0.026345,-0.781375,-9.761517
16.730513,39.146423,-0.762939,-0.415828,-0.353864,-1.053210,-9.696851
16.746241,40.237427,-0.892639,0.812505,-0.145497,-1.222059,-9.813009
16.761963,40.573120,-0.358582,-0.629451,0.144300,-1.367556,-9.811812
16.777691,40.168762,-0.106812,-1.132991,-0.008383,-1.546584,-9.753134
16.793436,40.695190,0.259399,-1.705195,-0.029339,-1.621428,-9.588476
16.809209,40.336609,0.328064,-1.705195,-0.018561,-1.795067,-9.575304
16.824955,40.290833,-0.663757,-1.209285,-0.013173,-1.789080,-9.553749
16.840702,40.145874,-0.251770,-1.255061,-0.223934,-1.850751,-9.695654
16.856383,40.962219,-0.663757,0.972722,-0.281415,-2.016008,-9.806423
16.872063,41.435242,-1.663208,2.513860,-0.053888,-2.295626,-9.616019
16.887703,42.098999,-0.999451,1.010869,0.157473,-2.243535,-9.586082
16.903347,43.655396,-0.961304,1.102422,-0.345482,-2.329156,-9.641167
16.918953,44.731140,-0.610352,1.598333,-0.127535,-2.515369,-9.475910
16.934525,44.090271,-0.518799,-0.064875,0.022154,-2.821333,-9.347178
16.950127,44.876099,0.373840,-1.613643,-0.086819,-2.837499,-9.421424
16.965729,46.035767,0.381470,-2.246882,-0.070054,-2.917134,-9.466331
16.981292,46.394348,-0.007629,-2.658870,-0.179028,-3.123106,-9.318439
16.996989,46.195984,0.030518,-2.948787,0.096998,-3.342250,-9.374123
17.012693,47.088623,0.587463,-3.719356,0.038320,-3.469784,-9.295087
17.028378,47.225952,0.556946,-3.139522,-0.168849,-3.884722,-9.048999
17.044066,46.913147,-0.885010,-1.758601,0.130529,-3.862568,-9.295087
17.059749,47.691345,-0.396729,-2.246882,0.273032,-3.613486,-8.826262
17.075398,46.096802,-0.396729,-1.148250,-0.069456,-3.900888,-8.937031
17.091001,45.745850,-0.404358,0.026677,0.115560,-4.114644,-8.866977
17.106781,46.157837,-1.197815,0.370000,0.147892,-4.206253,-9.042412
17.122410,46.936035,-1.182556,1.621221,-0.221539,-4.375700,-9.229822
17.138077,48.004150,-1.174927,2.902959,-0.035327,-4.488865,-8.896316
17.153649,47.309875,-0.488281,2.857183,0.005988,-4.599036,-8.638252
17.169522,47.485352,-0.099182,2.773259,-0.153281,-4.757706,-8.641247
17.185162,47.760010,-0.587463,2.826665,-0.304766,-4.776866,-8.546044
17.200789,47.096252,-0.114441,2.201055,-0.186812,-5.059479,-8.469403
17.216372,46.516418,-0.350952,1.018499,-0.186812,-5.140311,-8.358634
17.231967,47.378540,-0.160217,0.858281,-0.314346,-5.290598,-8.544847
17.247653,46.012878,-0.221252,0.713323,-0.139510,-5.619913,-8.273611
17.263310,46.508789,-0.411987,-0.957515,-0.074246,-5.742658,-8.420904
17.278981,47.615051,-0.495911,-1.880671,-0.489183,-5.749244,-8.877754
17.294733,46.951294,-0.450134,-1.987483,-0.107776,-6.845564,-8.038898
17.310529,45.669556,-0.778198,-1.651790,0.085023,-5.467231,-7.712577
17.326246,45.631409,-0.076294,-2.307918,-0.085023,-6.039042,-7.712577
17.341989,45.150757,-1.365662,-0.965144,-0.231119,-6.511459,-8.098774
17.357624,43.960571,-0.595093,0.568364,-0.060474,-6.418054,-7.646116
17.373251,43.800354,-0.717163,0.057195,0.017364,-6.333030,-7.659288
17.388893,42.724609,-0.549316,0.392888,-0.415536,-6.467750,-7.480859
17.404568,41.313171,-0.205994,1.537297,0.147294,-6.771319,-7.459304
17.420186,40.924072,0.434875,1.316045,0.027543,-6.881490,-7.381466
17.435760,40.390015,-0.892639,0.492070,-0.094005,-6.823411,-7.142563
17.451390,39.482117,-0.679016,1.758550,-0.020956,-7.489226,-7.229383
17.466981,39.329529,0.663757,1.369451,-0.028141,-6.777905,-7.227586
17.482593,37.597656,-0.625610,0.286077,-0.189805,-7.243138,-6.994071
17.498236,36.247253,-0.427246,-1.132991,-0.384401,-7.513775,-6.782113
17.513901,35.346985,-0.770569,-0.385310,-0.456850,-7.407197,-6.892882
17.529588,33.554077,0.732422,0.568364,-0.176034,-7.284452,-6.746786
17.545280,31.867981,-0.854492,-0.797297,-0.110171,-7.741302,-6.776724
17.560979,31.806946,-0.976562,-1.132991,-0.200583,-8.472382,-6.307300
17.576733,30.586243,-0.434875,-0.507380,-0.231119,-7.716154,-6.534827
17.592487,28.648376,0.312805,0.202153,0.017364,-7.684420,-6.282751
17.608246,27.313232,0.244141,-0.072505,-0.047900,-7.848479,-6.292930
17.623931,24.932861,-0.823975,-0.560786,-0.045505,-7.798782,-6.249819
17.639609,22.399902,-0.549316,-0.453975,-0.000599,-7.768845,-6.094143
17.655266,20.324707,-0.564575,-1.316096,-0.205972,-7.716753,-6.108513
17.671142,20.034790,-1.205444,-2.460505,-0.218546,-7.970625,-6.309096
17.686774,17.738342,-1.976013,-4.207637,-0.096998,-8.429870,-5.779198
17.702396,12.802124,-1.853943,-4.497554,-0.211360,-8.235274,-5.478024
17.717945,7.339478,-2.105713,-4.016902,0.003593,-8.138875,-5.695971
17.733549,2.189636,-2.372742,-4.856135,-0.070054,-8.086783,-5.821111
17.749109,-2.220154,-2.922058,-4.772212,-0.152084,-8.331675,-5.797161
17.764696,-5.210876,-2.555847,-4.344966,-0.032932,-8.434061,-6.057020
17.780372,-7.637024,-1.693726,-1.758601,-0.031135,-8.198750,-6.031873
17.796044,-10.116577,-0.015259,-0.606562,0.020358,-8.001760,-6.142642
17.811831,-11.154175,0.534058,1.659368,0.280217,-8.041278,-6.224073
17.827528,-12.084961,1.152039,3.650640,0.032932,-7.999365,-6.277961
17.843282,-13.084412,1.632690,5.313848,0.076641,-8.079598,-6.237844
17.859056,-14.038086,1.258850,5.710576,-0.027543,-7.962243,-6.297121
17.874735,-15.686035,2.380371,5.969975,-0.071851,-7.811356,-6.201320
17.890388,-16.738892,1.014709,4.940007,-0.062869,-7.824529,-6.421063
17.906059,-17.173767,1.251221,4.184697,-0.243094,-7.830516,-6.456390
17.921845,-18.081665,0.701904,2.773259,-0.307760,-7.691007,-6.449803
17.937585,-19.821167,0.167847,1.018499,-0.438289,-7.500004,-6.476748
17.953219,-21.453857,-0.061035,-1.255061,-0.000599,-7.494016,-6.556981
17.968772,-22.628784,-0.823975,-2.956416,-0.384401,-7.535929,-6.639609
17.984346,-22.483826,-0.320435,-2.658870,-0.154479,-7.486232,-6.783310
18.000016,-22.415161,-0.480652,-2.635982,-0.015568,-7.505991,-6.776724
18.015676,-22.842407,-0.305176,-2.925899,0.051493,-7.307205,-6.825821
18.031306,-23.445129,-1.289368,-2.864863,-0.132325,-7.307803,-6.842587
18.046987,-24.353027,-0.236511,-1.194026,-0.098795,-7.107221,-6.928807
18.062628,-24.971008,-0.137329,-0.003840,-0.037722,-7.170689,-6.985090
18.078286,-25.085449,-0.198364,0.705693,0.078437,-7.086863,-7.135378
18.094000,-24.787903,0.137329,0.987981,0.055684,-7.148535,-7.109033
18.109647,-24.765015,-0.144958,1.674626,-0.076641,-7.002439,-7.131785
18.125272,-25.863647,-0.183105,1.361821,0.132924,-6.771918,-7.154538
18.140947,-27.000427,0.312805,1.827214,-0.078437,-6.793473,-7.257524
18.156617,-27.008057,-0.289917,1.216863,-0.306563,-6.783294,-7.369491
18.172395,-26.412964,-0.534058,1.140569,-0.230521,-6.776708,-7.470681
18.188063,-26.000977,0.556946,0.583623,-0.093406,-6.782695,-7.482057
18.203662,-25.833130,-0.160217,-0.507380,-0.208965,-6.470145,-7.467088
18.219293,-27.114868,-0.587463,-1.232173,-0.000599,-6.511459,-7.449125
18.234874,-29.289246,-0.183105,-1.651790,-0.059875,-6.395301,-7.567080
18.250486,-27.023315,0.473022,-1.018550,-0.249082,-6.333629,-7.705991
18.266082,-26.840210,-0.572205,-0.064875,-0.080233,-6.368357,-7.807181
18.281680,-25.993347,0.328064,-0.194575,0.213157,-6.164780,-7.847896
18.297343,-26.405334,-0.373840,-1.270320,-0.107177,-6.081553,-7.817958
18.312979,-26.496887,-0.190735,-0.789668,-0.282014,-6.062393,-7.899389
18.328612,-26.092529,0.305176,0.911687,0.087418,-5.905519,-7.985011
18.344299,-26.115417,0.190735,0.301335,0.168849,-5.966592,-8.059257
18.359988,-25.573730,-0.167847,-0.484492,-0.099393,-5.915698,-8.137094
18.375716,-25.085449,-0.106812,0.415776,-0.113763,-5.661227,-8.105960
18.391534,-25.062561,0.091553,0.606511,-0.034728,-5.687572,-8.154459
18.407199,-24.421692,-0.190735,0.011418,-0.075443,-5.585186,-8.206551
18.422789,-23.529053,-0.534058,0.057195,-0.091011,-5.538483,-8.306542
18.438436,-23.185730,-0.335693,0.102971,-0.039518,-5.494175,-8.307141
18.454010,-22.666931,-0.228882,-0.141169,-0.235909,-5.403164,-8.335282
18.469596,-21.804810,-0.564575,0.438665,-0.161065,-5.402565,-8.367017
18.485148,-19.584656,0.167847,0.720952,0.119152,-5.216951,-8.381986
18.500734,-21.003723,0.358582,0.392888,-0.055085,-5.184618,-8.465811
18.516319,-20.423889,-0.579834,0.141118,-0.235311,-5.072052,-8.467009
18.531903,-19.767761,-0.396729,0.446294,0.052092,-5.122947,-8.519100
18.547594,-18.920898,0.144958,-0.385310,-0.099992,-5.107379,-8.558619
18.563233,-17.837524,-0.061035,-0.217463,-0.286804,-5.013375,-8.589753
18.578925,-17.028809,-0.350952,-0.133540,0.187410,-4.921765,-8.605321
18.594648,-16.578674,-0.045776,-1.049067,-0.108375,-4.840334,-8.617895
18.610367,-15.762329,-0.205994,-0.263240,-0.235311,-4.799020,-8.643043
18.626084,-14.961243,-0.175476,0.255559,0.105980,-4.762496,-8.656216
18.641846,-14.152527,-0.183105,-0.293757,0.016765,-4.609814,-8.719684
18.657468,-13.290405,-0.320435,2.201055,-0.159269,-4.735552,-8.738843
18.673823,-12.573242,-0.137329,0.514959,-0.019759,-4.646936,-8.721479
18.689513,-11.817932,-0.518799,0.019048,-0.067659,-4.604425,-8.773571
18.705268,-10.726929,-0.320435,0.087712,-0.213157,-4.573889,-8.819077
18.720914,-9.773254,-0.297546,0.354741,0.137115,-4.569697,-8.778960
18.736493,-9.109497,-0.129700,-0.194575,-0.043110,-4.556525,-8.798120
18.752075,-8.369446,-0.465393,-0.095393,-0.003593,-4.536167,-8.806502
18.767644,-7.324219,-0.267029,0.171636,-0.043110,-4.468508,-8.808898
18.783266,-6.599426,-0.442505,-0.354792,-0.019759,-4.436774,-8.826860
18.798871,-5.989075,-0.381470,-0.438716,-0.113165,-4.360133,-8.804707
18.814583,-4.890442,-0.198364,0.232671,-0.111967,-4.377497,-8.849014
18.830268,-3.715515,-0.183105,0.003789,-0.033530,-4.383484,-8.884341
18.845922,-2.464294,-0.236511,-0.103022,-0.087418,-4.391268,-8.908291
18.861714,-1.144409,-0.183105,0.278447,-0.092807,-4.401447,-8.895119
18.877434,0.144958,-0.396729,0.446294,-0.015568,-4.369713,-8.833447
18.893314,1.159668,-0.305176,0.049565,-0.096400,-4.342170,-8.875958
18.909082,2.212524,-0.366211,0.324224,-0.134720,-4.339177,-8.835842
18.925056,2.952576,-0.358582,0.125859,-0.001198,-4.346362,-8.848415
18.940748,4.020691,-0.267029,-0.156428,-0.082029,-4.372707,-8.869970
18.956435,4.837036,-0.267029,0.034307,-0.105381,-4.456532,-8.854403
18.972067,5.935669,-0.030518,0.011418,-0.043709,-4.512815,-8.841230
18.987690,7.110596,-0.221252,-0.080134,-0.080832,-4.533173,-8.812490
19.003246,8.247375,-0.267029,0.011418,-0.065264,-4.570895,-8.796324
19.018860,8.865356,-0.358582,0.125859,-0.075443,-4.540957,-8.752615
19.034450,9.155273,-0.282288,0.179265,-0.071252,-4.531976,-8.722677
19.050120,9.353638,-0.404358,0.232671,-0.064067,-4.575685,-8.734653
19.065859,9.552002,-0.267029,0.202153,-0.094603,-4.646338,-8.763392
19.081596,10.238647,-0.251770,0.011418,-0.123942,-4.679868,-8.780756
19.097370,11.428833,-0.274658,0.209783,-0.078437,-4.724775,-8.765787
19.113107,12.382507,-0.114441,0.080083,-0.049098,-4.789440,-8.759800
19.128952,13.244629,-0.076294,0.041936,-0.044308,-4.779262,-8.693936
19.144693,13.992310,-0.167847,0.125859,-0.018561,-4.794230,-8.634061
19.160444,14.045715,-0.274658,0.125859,-0.061672,-4.847519,-8.596340
19.176373,13.862610,-0.289917,0.263188,-0.093406,-4.872667,-8.581371
19.192069,13.977051,-0.373840,0.461553,-0.049098,-4.921166,-8.588556
19.207732,14.274597,-0.267029,0.095342,-0.096400,-5.015769,-8.486768
19.223318,15.060425,-0.305176,0.186895,-0.125140,-5.045707,-8.626278
19.238983,16.265869,-0.289917,-0.026729,-0.024549,-5.113966,-8.559815
19.254565,16.876221,-0.350952,-0.354792,-0.094603,-5.159471,-8.487367
19.270185,17.295837,-0.251770,0.003789,-0.128134,-5.154082,-8.455033
19.285761,17.166138,-0.259399,-0.087764,-0.141306,-5.155878,-8.411923
19.301371,16.731262,-0.404358,-0.072505,-0.302371,-5.254673,-8.395158
19.317050,16.860962,-0.534058,1.239751,-0.032333,-5.343887,-8.405337
19.332656,17.112732,-0.366211,1.209233,0.046703,-5.491181,-8.381986
19.348424,17.936707,-0.366211,-0.186946,-0.155078,-5.449867,-8.431084
19.364115,18.699646,-0.068665,-0.164058,-0.280217,-5.489984,-8.306542
19.379863,18.661499,-0.274658,0.026677,-0.050894,-5.526507,-8.195174
19.395614,18.379211,-0.190735,-0.713374,0.035327,-5.516329,-8.198168
19.411326,17.524719,-0.335693,-1.201655,-0.071851,-5.657036,-8.138292
19.427003,17.189026,-0.297546,-0.804927,-0.165256,-5.720504,-8.171224
19.442680,17.639160,0.007629,-0.232722,-0.076042,-5.752837,-8.165835
19.458481,18.150330,-0.221252,-0.095393,-0.013173,-5.809120,-8.125119
19.474088,18.516541,-0.137329,-0.125911,-0.001198,-5.908513,-8.109552
19.489722,19.088745,-0.465393,0.469182,-0.020358,-5.964197,-8.041294
19.505315,18.714905,-0.358582,0.896428,0.025148,-5.945636,-7.950882
19.520899,17.990112,-0.686646,0.789617,-0.024549,-5.933661,-7.902383
19.536453,17.028809,-0.267029,0.514959,-0.143102,-5.993536,-7.898790
19.552030,16.212463,-0.343323,0.575994,-0.140707,-6.072572,-7.874840
19.567588,15.914917,-0.450134,0.591252,-0.163460,-6.247408,-7.930524
19.583285,16.647339,-0.175476,0.202153,-0.063468,-6.243217,-7.906574
19.598923,17.211914,-0.389099,0.156377,-0.155676,-6.264772,-7.836520
19.614622,17.021179,-0.091553,0.499700,-0.062869,-6.331234,-7.762274
19.630302,16.326904,-0.366211,0.232671,0.029938,-6.300099,-7.653900
19.645999,15.007019,-0.259399,-0.164058,-0.056283,-6.319858,-7.592826
19.661755,13.687134,-0.686646,-0.095393,-0.153281,-6.353388,-7.593425
19.679020,12.954712,-0.404358,-0.064875,-0.059277,-6.432424,-7.643721
19.694787,12.420654,-0.259399,-0.232722,-0.135917,-6.518045,-7.661684
19.710499,12.878418,-0.091553,-0.148799,-0.149689,-6.536008,-7.661085
19.726160,13.069153,-0.221252,0.202153,-0.085622,-6.543792,-7.583246
19.741801,12.855530,0.274658,-0.110652,-0.034129,-6.536008,-7.540136
19.757388,12.214661,-0.244141,-0.614192,-0.061672,-6.573131,-7.497026
19.773001,11.314392,-0.350952,-0.385310,-0.071851,-6.583909,-7.459903
19.788633,10.635376,-0.144958,-0.011470,0.007784,-6.671327,-7.445533
19.804193,10.269165,-0.587463,0.026677,-0.075443,-6.775510,-7.465292
19.819728,9.727478,-0.663757,0.453923,-0.102387,-6.761140,-7.411404
19.835310,9.262085,-0.244141,0.675176,-0.089813,-6.789880,-7.367096
19.850847,8.262634,0.068665,0.652288,-0.110171,-6.759943,-7.317998
19.866469,7.225037,-0.228882,0.629399,-0.080832,-6.743177,-7.316202
19.882162,6.256104,-0.274658,0.560735,-0.099992,-6.777905,-7.319794
19.897858,5.241394,-0.152588,0.583623,-0.057480,-6.816226,-7.377873
19.913575,4.730225,-0.129700,0.308965,-0.089214,-6.825806,-7.344343
19.929337,4.432678,-0.480652,-0.171687,-0.131127,-6.824608,-7.359911
19.945119,4.104614,-0.549316,-0.659968,-0.149689,-6.824608,-7.293449
19.960914,3.623962,-0.167847,-0.766780,-0.126337,-6.821016,-7.283270
19.976759,3.051758,-0.305176,-0.690486,-0.082029,-6.774313,-7.325782
19.992546,2.273560,-0.297546,-0.499751,-0.028141,-6.816824,-7.296443
20.008199,1.655579,-0.213623,-0.064875,-0.059277,-6.828799,-7.297041
20.023863,1.319885,-0.137329,0.286077,-0.022753,-6.831793,-7.332967
20.039540,1.022339,-0.328064,0.270818,-0.036524,-6.851552,-7.329374
20.055145,0.732422,-0.328064,0.331853,-0.124541,-6.832991,-7.319196
20.070978,0.328064,-0.213623,0.415776,-0.112566,-6.825806,-7.304227
20.086699,-0.007629,-0.205994,0.583623,-0.074844,-6.831793,-7.296443
20.102298,-0.778198,-0.297546,0.400518,-0.099992,-6.804251,-7.313807
20.117957,-1.274109,-0.144958,0.255559,-0.132924,-6.811436,-7.313807
20.133588,-1.823425,-0.335693,0.156377,-0.127535,-6.821016,-7.341948
20.149377,-2.250671,-0.350952,-0.309016,-0.082029,-6.827003,-7.350331
20.165087,-2.479553,-0.167847,-0.629451,-0.083826,-6.819220,-7.361707
20.181483,-2.655029,-0.259399,-0.629451,-0.081431,-6.802454,-7.354522
20.197220,-3.402710,-0.312805,-0.400569,-0.073647,-6.790479,-7.323986
20.212958,-3.913879,-0.213623,-0.225093,-0.042512,-6.788683,-7.331171
20.228776,-4.737854,-0.106812,0.072454,-0.071252,-6.790479,-7.361707
20.244589,-5.393982,-0.068665,0.125859,-0.117356,-6.789880,-7.365300
20.260281,-5.813599,-0.022888,0.347112,-0.055085,-6.764134,-7.394639
20.276111,-6.179810,1.792908,0.415776,-0.082628,-6.768325,-7.392244
20.291784,-6.652832,-0.282288,0.392888,-0.071851,-6.731203,-7.374880
20.307414,-7.209778,-0.175476,0.324224,-0.083826,-6.714437,-7.407213
20.323111,-8.148193,-0.099182,0.316594,-0.114961,-6.630013,-7.414398
20.338709,-9.010315,-0.152588,0.064824,-0.152084,-6.555767,-7.488044
20.354319,-9.567261,-0.167847,-0.507380,-0.120350,-6.594687,-7.534747
20.369895,-9.712219,-0.167847,-0.843074,-0.114961,-6.601871,-7.610789
20.385430,-9.361267,-0.205994,-1.140620,-0.046104,-6.588699,-7.589833
20.401482,-9.040833,-0.373840,-1.140620,-0.040715,-6.503077,-7.564685
20.417368,-8.911133,-0.312805,-0.766780,0.010179,-6.465954,-7.571870
20.433166,-9.078979,-0.350952,-0.362422,-0.047900,-6.416257,-7.589833
20.448982,-9.231567,-0.442505,0.209783,-0.137115,-6.411467,-7.607795
20.464757,-9.521484,-0.099182,0.682805,-0.096998,-6.439010,-7.653900
20.480600,-9.643555,-0.030518,0.911687,-0.072449,-6.285729,-7.691621
20.496298,-9.223938,-0.236511,1.201604,-0.107776,-6.398294,-7.680843
20.512033,-9.346008,0.015259,1.255010,-0.059875,-6.360573,-7.683837
20.527779,-9.574890,0.015259,1.018499,-0.056882,-6.312074,-7.708985
20.543667,-9.948730,-0.198364,0.431035,-0.122146,-6.273155,-7.712577
20.559557,-10.513306,-0.244141,0.133489,-0.137714,-6.274353,-7.760478
20.575186,-10.765076,-0.114441,-0.446345,-0.108973,-6.210885,-7.798200
20.590927,-10.971069,-0.259399,-1.201655,-0.096400,-6.182743,-7.833526
20.606545,-10.879517,-0.495911,-1.491572,-0.161664,-6.194119,-7.857476
20.622179,-10.559082,-0.114441,-1.247432,-0.103585,-6.174360,-7.913759
20.637782,-10.215759,-0.068665,-1.110103,-0.000599,-6.106701,-7.895198
20.653433,-10.261536,-0.282288,-0.919368,-0.107177,-6.006110,-7.863464
20.669040,-10.231018,-0.366211,-0.515010,-0.008981,-5.950426,-7.904778
20.684728,-10.093689,0.038147,-0.003840,-0.058678,-5.955815,-7.982017
20.700367,-9.910583,-0.267029,0.499700,-0.086819,-6.018085,-8.009560
20.716105,-9.231567,-0.328064,0.812505,-0.022753,-5.995333,-8.022733
20.731827,-8.743286,-0.228882,0.904058,-0.067659,-5.954019,-8.046682
20.747594,-8.377075,-0.015259,1.064275,-0.119152,-5.872588,-8.011356
