Timestamp,Gyro_X_dps,Gyro_Y_dps,Gyro_Z_dps,Accel_X_mps2,Accel_Y_mps2,Accel_Z_mps2
0.005539,0.312805,-0.259399,0.019048,-0.048499,8.623867,4.205040
0.021251,0.411987,-0.320435,-0.019099,-0.050894,8.611293,4.220607
0.037049,0.427246,-0.289917,-0.019099,-0.059277,8.608898,4.187676
0.052682,0.419617,-0.068665,-0.011470,-0.032932,8.616083,4.191867
0.068302,0.289917,-0.190735,0.102971,-0.070054,8.625663,4.195459
0.084195,0.450134,-0.068665,0.057195,-0.043110,8.640632,4.187077
0.099978,0.320435,-0.175476,-0.110652,-0.063468,8.604707,4.193065
0.115815,0.350952,-0.297546,0.080083,-0.063468,8.637039,4.203243
0.131591,0.175476,-0.221252,0.026677,-0.029339,8.626262,4.181688
0.147277,0.358582,-0.205994,0.041936,-0.045505,8.614286,4.182886
0.163003,0.427246,-0.091553,0.019048,-0.070054,8.607700,4.204441
0.178782,0.396729,-0.122070,-0.003840,-0.050894,8.647817,4.202046
0.194511,0.411987,-0.228882,0.034307,-0.015568,8.622070,4.200849
0.210272,0.366211,-0.358582,-0.026729,-0.064666,8.622669,4.211626
0.225977,0.343323,-0.175476,0.003789,-0.045505,8.617280,4.200250
0.241563,0.442505,-0.190735,-0.041987,-0.067061,8.625064,4.197256
0.257160,0.312805,-0.114441,-0.019099,-0.047302,8.643625,4.209231
0.272757,0.289917,-0.259399,0.026677,-0.074844,8.608898,4.208034
0.288308,0.389099,-0.251770,-0.087764,-0.025746,8.638836,4.210428
0.303987,0.259399,-0.106812,0.049565,-0.066462,8.629854,4.208632
0.319798,0.389099,-0.175476,0.041936,-0.053888,8.601712,4.179293
0.335506,0.358582,-0.297546,-0.080134,-0.070653,8.605904,4.218811
0.351593,0.267029,-0.190735,0.034307,-0.020358,8.636440,4.203842
0.367392,0.389099,-0.175476,-0.011470,-0.041913,8.610694,4.223002
0.383304,0.389099,-0.244141,0.057195,-0.080832,8.625663,4.173306
0.399270,0.381470,-0.282288,0.049565,-0.075443,8.601712,4.200849
0.415204,0.267029,-0.114441,0.011418,0.020358,8.634046,4.205638
0.430985,0.335693,-0.251770,-0.019099,-0.062271,8.609496,4.202645
0.446655,0.213623,-0.038147,-0.034358,-0.074246,8.639434,4.197855
0.462275,0.328064,-0.312805,0.003789,-0.031734,8.616083,4.208632
0.477905,0.442505,-0.137329,0.057195,-0.054487,8.609496,4.200849
0.493592,0.282288,-0.175476,0.080083,-0.054487,8.643625,4.196058
0.509277,0.152588,-0.289917,0.148748,-0.038919,8.620872,4.191268
0.524930,0.350952,-0.244141,-0.003840,-0.059277,8.604108,4.206836
0.540547,0.556946,-0.373840,0.141118,-0.042512,8.619077,4.199651
0.556231,0.144958,-0.267029,0.011418,-0.043709,8.622669,4.183485
0.571775,0.312805,-0.289917,-0.049617,-0.065863,8.622070,4.215219
0.588061,0.366211,-0.373840,-0.041987,-0.041913,8.630453,4.208632
0.603834,0.366211,-0.221252,-0.041987,-0.044308,8.628057,4.180490
0.619424,0.366211,-0.221252,0.049565,-0.095202,8.631052,4.193065
0.635033,0.259399,-0.312805,0.026677,-0.017963,8.598120,4.172108
0.652714,0.389099,-0.320435,-0.026729,-0.030536,8.647817,4.197855
0.669211,0.205994,-0.244141,-0.034358,-0.046703,8.612491,4.205040
0.685805,0.328064,-0.236511,0.080083,-0.067659,8.635841,4.188873
0.702468,0.297546,-0.076294,0.064824,-0.042512,8.628656,4.188873
0.720518,0.442505,-0.244141,0.064824,-0.061672,8.638836,4.206237
0.736201,0.312805,-0.221252,-0.034358,-0.044308,8.618478,4.228391
0.751840,0.465393,-0.175476,-0.057246,-0.059875,8.620274,4.225996
0.767503,0.389099,-0.236511,0.049565,-0.053888,8.612491,4.197256
0.783194,0.450134,-0.198364,-0.041987,-0.011376,8.626861,4.209231
0.800060,0.350952,-0.236511,-0.011470,-0.085023,8.642428,4.189472
0.815693,0.312805,-0.251770,0.072454,-0.017364,8.604707,4.176898
0.831713,0.366211,-0.236511,-0.011470,-0.062869,8.625663,4.227792
0.847388,0.404358,-0.038147,-0.026729,-0.029339,8.625064,4.199651
0.863104,0.297546,-0.282288,0.019048,-0.058678,8.641829,4.204441
0.878764,0.366211,-0.205994,-0.034358,-0.041314,8.627460,4.196058
0.894315,0.381470,-0.244141,0.049565,-0.040117,8.629854,4.206836
0.910206,0.267029,-0.289917,0.095342,-0.057480,8.620872,4.201447
0.925786,0.350952,-0.236511,0.041936,-0.057480,8.633447,4.185281
0.941409,0.312805,-0.312805,0.080083,-0.019160,8.613688,4.228391
0.956982,0.350952,-0.160217,-0.057246,-0.030536,8.622070,4.193663
0.972682,0.419617,-0.228882,0.057195,-0.067061,8.622070,4.194262
0.988406,0.267029,-0.251770,0.080083,-0.043110,8.621471,4.187676
1.004024,0.411987,-0.221252,0.049565,-0.046703,8.636440,4.194262
1.019866,0.366211,-0.244141,0.057195,-0.030536,8.614286,4.232583
1.035519,0.282288,-0.328064,-0.003840,-0.066462,8.631650,4.164923
1.051132,0.328064,-0.144958,0.003789,-0.037123,8.625663,4.195459
1.066767,0.236511,-0.244141,0.118230,-0.049098,8.617280,4.188873
1.082343,0.297546,-0.160217,-0.034358,-0.024549,8.641231,4.181089
1.098262,0.289917,-0.236511,0.057195,-0.042512,8.623867,4.211626
1.113919,0.350952,-0.320435,-0.019099,-0.063468,8.610694,4.194262
1.129803,0.274658,-0.160217,0.026677,-0.019160,8.636440,4.209830
1.145427,0.190735,-0.373840,0.057195,-0.060474,8.617879,4.194861
1.161224,0.335693,-0.244141,-0.019099,-0.086221,8.619077,4.237372
1.176860,0.213623,-0.274658,-0.019099,-0.001796,8.614885,4.204441
1.192515,0.373840,-0.244141,-0.019099,-0.089813,8.630453,4.188274
1.208392,0.495911,-0.289917,0.087712,-0.051493,8.623268,4.199052
1.224076,0.358582,-0.358582,0.202153,-0.040715,8.619676,4.223002
1.239669,0.358582,-0.305176,0.064824,-0.037123,8.601712,4.191268
1.255576,0.381470,-0.297546,0.064824,-0.090412,8.611892,4.208034
1.271228,0.419617,-0.389099,0.118230,-0.032333,8.638836,4.200849
1.286870,0.434875,-0.236511,-0.072505,-0.055684,8.613688,4.218811
1.302439,0.312805,-0.350952,0.049565,-0.045505,8.611892,4.186478
1.318102,0.488281,-0.282288,-0.011470,-0.062271,8.641231,4.211626
1.334465,0.289917,-0.221252,0.003789,-0.053289,8.619077,4.191867
1.350474,0.282288,-0.251770,0.003789,-0.068857,8.610694,4.181688
1.366587,0.320435,-0.190735,-0.057246,-0.040715,8.598120,4.214021
1.382433,0.160217,-0.305176,0.080083,-0.045505,8.618478,4.208034
1.398396,0.457764,-0.213623,-0.026729,-0.039518,8.607101,4.173306
1.414165,0.442505,-0.228882,0.019048,-0.050295,8.629255,4.192466
1.430086,0.274658,-0.244141,0.064824,-0.042512,8.616083,4.189472
1.445802,0.205994,-0.213623,0.019048,-0.043709,8.629854,4.210428
1.461447,0.389099,-0.297546,-0.049617,-0.059277,8.611293,4.190071
1.477218,0.289917,-0.221252,-0.057246,-0.029339,8.616083,4.193663
1.492876,0.511169,-0.305176,0.003789,-0.065264,8.589738,4.190670
1.508504,0.259399,-0.251770,-0.019099,-0.076641,8.657397,4.224200
1.524123,0.328064,-0.297546,-0.003840,-0.051493,8.618478,4.206237
1.539730,0.465393,-0.297546,0.019048,-0.035925,8.583750,4.194262
1.555497,0.320435,-0.236511,-0.019099,-0.050295,8.654403,4.192466
1.571103,0.213623,-0.350952,0.019048,-0.091011,8.650810,4.200250
1.586716,0.518799,-0.312805,-0.003840,-0.063468,8.575367,4.183485
1.602485,0.274658,-0.289917,-0.072505,-0.021555,8.628656,4.190670
1.618199,0.434875,-0.129700,0.049565,-0.068258,8.640632,4.223601
1.633868,0.434875,-0.282288,0.133489,-0.076042,8.598719,4.191268
1.651339,0.373840,-0.183105,0.011418,-0.013771,8.631052,4.193065
1.666917,0.259399,-0.137329,-0.103022,-0.023351,8.653206,4.199651
1.682663,0.335693,-0.236511,-0.019099,-0.062271,8.647218,4.206836
1.698431,0.366211,-0.221252,-0.049617,-0.071851,8.598120,4.211027
1.714312,0.396729,-0.221252,0.019048,-0.004191,8.643625,4.209830
1.730104,0.259399,-0.289917,0.080083,-0.056283,8.636440,4.204441
1.745755,0.328064,-0.244141,-0.057246,-0.021555,8.613089,4.193065
1.761397,0.389099,-0.152588,0.141118,-0.098196,8.618478,4.182886
1.777057,0.389099,-0.221252,0.011418,-0.013771,8.625663,4.214021
1.792656,0.335693,-0.320435,-0.057246,-0.050894,8.644823,4.185880
1.808305,0.366211,-0.251770,0.064824,-0.079036,8.610694,4.208632
1.823864,0.358582,-0.152588,-0.034358,-0.028740,8.604108,4.190071
1.839497,0.160217,-0.404358,0.064824,-0.082029,8.630453,4.191867
1.855103,0.167847,-0.289917,0.080083,-0.049697,8.637039,4.165522
1.870675,0.312805,-0.221252,0.087712,-0.035925,8.634046,4.193663
1.886334,0.305176,-0.236511,0.026677,-0.053289,8.628656,4.185281
1.901988,0.488281,-0.144958,0.087712,-0.075443,8.628057,4.194262
1.917781,0.358582,-0.213623,0.041936,-0.045505,8.635242,4.195459
1.933546,0.457764,-0.205994,0.026677,-0.039518,8.628057,4.200250
1.949286,0.289917,-0.167847,0.133489,-0.053888,8.605305,4.189472
1.965008,0.213623,-0.297546,0.049565,-0.041913,8.632249,4.167318
1.980795,0.335693,-0.312805,-0.041987,-0.029938,8.625064,4.181089
1.996621,0.297546,-0.099182,-0.080134,-0.056283,8.626262,4.185281
2.012258,0.244141,-0.213623,-0.019099,0.135319,8.635841,4.180490
2.027879,0.335693,-0.297546,0.019048,-0.120350,8.652607,4.191867
2.043556,0.221252,-0.114441,-0.019099,0.050295,8.620872,4.194861
2.059215,0.267029,-0.297546,0.034307,-0.059875,8.598719,4.227194
2.074825,0.411987,-0.205994,0.110601,-0.068857,8.609496,4.217614
2.090430,0.213623,-0.129700,-0.019099,-0.028141,8.634046,4.166719
2.106106,0.411987,-0.259399,-0.003840,-0.010179,8.630453,4.184083
2.121668,0.328064,-0.221252,0.034307,-0.080832,8.613688,4.193663
2.137285,0.198364,-0.396729,0.041936,-0.019759,8.657397,4.182287
2.152890,0.419617,-0.160217,0.026677,-0.072449,8.622669,4.185281
2.168711,0.389099,-0.175476,0.041936,-0.001198,8.602910,4.197855
2.184328,0.289917,-0.236511,-0.072505,-0.044308,8.619077,4.184682
2.200030,0.312805,-0.335693,-0.041987,-0.073048,8.632848,4.208034
2.215826,0.106812,-0.190735,0.049565,-0.032333,8.634046,4.203842
2.231529,0.358582,-0.312805,0.080083,-0.032333,8.617280,4.187676
2.247362,0.221252,-0.236511,0.087712,-0.071851,8.614286,4.202046
2.263104,0.328064,-0.122070,-0.041987,-0.020956,8.616083,4.183485
2.279028,0.366211,-0.152588,-0.019099,-0.072449,8.601712,4.205040
2.294663,0.358582,-0.228882,-0.072505,-0.022154,8.623268,4.208632
2.310250,0.228882,-0.205994,-0.003840,-0.061073,8.605305,4.215219
2.325799,0.442505,-0.289917,0.041936,-0.048499,8.618478,4.202046
2.341402,0.328064,-0.205994,-0.011470,-0.059875,8.621471,4.187676
2.357168,0.381470,-0.251770,0.034307,-0.037722,8.618478,4.209830
2.372899,0.541687,-0.106812,0.034307,-0.060474,8.589139,4.163725
2.388611,0.373840,-0.228882,-0.003840,-0.041314,8.660990,4.182287
2.404459,0.267029,-0.152588,0.034307,-0.032333,8.669971,4.239169
2.420211,0.480652,-0.221252,-0.011470,-0.082628,8.591534,4.206237
2.435998,0.495911,-0.198364,-0.118281,-0.026944,8.588540,4.212823
2.451840,0.259399,-0.389099,-0.011470,-0.040117,8.642428,4.203243
2.467659,0.411987,-0.167847,-0.110652,-0.035327,8.608299,4.178694
2.483279,0.473022,-0.129700,-0.011470,-0.052092,8.628656,4.202645
2.498914,0.465393,-0.076294,0.110601,-0.044308,8.626861,4.178694
2.514605,0.328064,-0.183105,-0.003840,-0.071851,8.622070,4.178096
2.530372,0.312805,-0.282288,-0.003840,-0.033530,8.596923,4.194262
2.546041,0.411987,-0.305176,0.049565,-0.034728,8.638836,4.206237
2.561680,0.358582,-0.251770,-0.019099,-0.055085,8.632249,4.195459
2.577318,0.419617,-0.221252,-0.049617,-0.047900,8.628057,4.197855
2.592929,0.358582,-0.457764,0.019048,-0.085023,8.637638,4.166121
2.608678,0.534058,-0.282288,-0.003840,-0.044308,8.609496,4.190071
2.624309,0.366211,-0.259399,-0.003840,-0.008383,8.602311,4.194861
2.639898,0.183105,-0.152588,0.026677,-0.030536,8.626861,4.181688
2.655536,0.274658,-0.259399,-0.011470,-0.068857,8.640033,4.175701
2.671097,0.297546,-0.244141,0.095342,-0.025746,8.637638,4.190670
2.686781,0.358582,-0.335693,-0.003840,-0.060474,8.607700,4.169713
2.702564,0.335693,-0.259399,0.034307,-0.037123,8.645422,4.172108
2.718174,0.213623,-0.335693,0.026677,-0.076641,8.635242,4.208632
2.733899,0.411987,-0.312805,0.125859,-0.065264,8.559201,4.185880
2.749778,0.335693,-0.350952,-0.019099,-0.052092,8.642428,4.187077
2.765542,0.312805,-0.267029,0.003789,-0.052092,8.648416,4.217015
2.781327,0.419617,-0.221252,0.019048,-0.060474,8.599916,4.184682
2.797048,0.457764,-0.228882,0.003789,-0.005988,8.637638,4.216416
2.812868,0.396729,-0.289917,0.072454,-0.086221,8.629255,4.197256
2.828481,0.442505,-0.320435,0.057195,-0.031734,8.650211,4.214021
2.844080,0.282288,-0.274658,0.041936,-0.044308,8.615484,4.203842
2.859681,0.389099,-0.175476,-0.019099,-0.022154,8.620274,4.196657
2.875341,0.411987,-0.244141,0.041936,-0.063468,8.600515,4.186478
2.891027,0.511169,-0.251770,0.019048,-0.086819,8.629255,4.191268
2.906642,0.488281,-0.213623,-0.057246,-0.013173,8.618478,4.201447
2.922260,0.343323,-0.350952,-0.041987,-0.075443,8.616681,4.187676
2.937861,0.335693,-0.289917,0.034307,-0.065264,8.629854,4.202046
2.953552,0.457764,-0.389099,0.011418,-0.046104,8.622070,4.205638
2.969167,0.389099,-0.427246,-0.034358,-0.034129,8.601712,4.206836
2.984852,0.358582,-0.244141,0.064824,-0.044907,8.623867,4.190071
3.000584,0.595093,-0.167847,0.125859,-0.033530,8.621471,4.187077
3.016333,0.480652,-1.937866,0.034307,-0.021555,8.638237,4.193065
3.032083,0.396729,-0.198364,-0.110652,-0.089214,8.634645,4.180490
3.047805,0.137329,-0.579834,-0.011470,-0.126936,8.630453,4.124806
3.063548,-0.320435,-0.068665,0.217412,-0.022154,8.648416,4.081696
3.079235,-1.045227,0.099182,0.270818,0.015568,8.636440,4.161929
3.094950,-1.426697,-0.282288,0.141118,-0.131127,8.653206,4.244557
3.111543,-0.907898,-0.434875,0.072454,-0.039518,8.637638,4.198453
3.127403,-0.862122,-0.381470,0.194524,-0.087418,8.642428,4.110436
3.143054,-1.472473,-0.236511,0.301335,0.015568,8.633447,4.063734
3.158859,-2.479553,0.541687,0.431035,-0.082029,8.670569,4.070320
3.174473,-3.089905,-0.122070,0.064824,0.001796,8.672366,4.239169
3.190061,-2.838135,-0.495911,-0.247981,0.007784,8.617879,4.211626
3.205625,-2.578735,-0.762939,-0.408198,-0.025148,8.641829,4.297248
3.221271,-2.357483,-0.396729,-0.820186,0.043709,8.572972,4.316408
3.236859,-1.762390,-0.732422,-0.446345,-0.150886,8.658594,4.303834
3.252511,-1.953125,-0.015259,-0.354792,0.041314,8.559201,4.204441
3.268160,-1.983643,-0.389099,-0.286128,-0.122146,8.531059,4.284674
3.283845,-2.166748,-0.404358,0.186895,-0.037123,8.666977,4.439153
3.299524,-0.976562,0.198364,0.202153,-0.043709,8.495134,4.292458
3.315356,-1.113892,1.708984,0.118230,-0.058678,8.611293,4.231385
3.331163,-1.426697,-0.083923,0.575994,-0.114362,8.640033,4.291260
3.346913,-1.289368,0.579834,0.514959,-0.017364,8.535850,4.216416
3.362641,-1.998901,0.244141,0.392888,0.044907,8.694520,4.126004
3.378749,-2.639771,-0.099182,0.179265,-0.034728,8.629854,4.170911
3.396200,-3.105164,-0.122070,-0.034358,-0.043110,8.637039,4.309223
3.412797,-3.120422,-0.381470,-0.263240,-0.043110,8.593929,4.231984
3.428497,-3.540039,-0.198364,-0.362422,-0.051493,8.555609,4.248749
3.444372,-4.234314,-0.213623,-0.095393,-0.059277,8.553213,4.228990
3.460134,-5.119324,-0.114441,-0.080134,-0.065863,8.535251,4.293056
3.476507,-5.500793,-0.099182,-0.156428,-0.075443,8.595725,4.361315
3.493832,-5.554199,-0.213623,-0.171687,-0.037722,8.515491,4.375685
3.510898,-5.767822,-0.350952,-0.232722,-0.066462,8.531059,4.352932
3.527519,-6.134033,-0.633240,-0.354792,-0.061073,8.497529,4.325389
3.544647,-6.721497,-0.274658,-0.415828,-0.020358,8.477172,4.406221
3.560695,-7.057190,-0.350952,-0.545527,-0.073048,8.486752,4.487053
3.576356,-7.141113,-0.358582,-0.530269,-0.098196,8.466992,4.542737
3.592032,-6.668091,-0.381470,-0.484492,-0.054487,8.473579,4.559503
3.608146,-6.469727,-0.007629,-0.217463,-0.066462,8.444241,4.506213
3.624843,-6.561279,-0.022888,-0.194575,-0.075443,8.580756,4.538546
3.642573,-6.980896,-0.251770,-0.080134,-0.068857,8.411907,4.580459
3.659046,-7.598877,0.030518,-0.072505,-0.029339,8.378377,4.617582
3.675379,-7.690430,-0.366211,-0.263240,-0.163460,7.893385,4.506812
3.691112,-7.537842,-0.480652,-0.431086,-0.037123,8.157436,4.708592
3.706748,-7.400513,0.045776,-0.278499,0.009580,8.258027,5.089401
3.722400,-6.637573,-0.518799,-0.743892,-0.067659,8.335865,4.558904
3.738185,-7.637024,-0.625610,-0.316646,-0.177231,8.213719,4.841516
3.754407,-7.926941,-0.564575,-0.247981,-0.166454,8.851993,4.620575
3.771511,-7.766724,-0.427246,-0.545527,-0.038919,8.208929,4.819961
3.787632,-6.820679,-0.297546,-0.415828,-0.137115,8.384963,4.856485
3.803660,-6.614685,-0.328064,-0.385310,-0.110171,8.333470,4.848103
3.819302,-5.508423,-0.679016,-0.247981,-0.099393,8.368797,4.925342
3.834994,-5.241394,-0.297546,-0.324275,-0.105381,8.468789,5.022939
3.850647,-5.096436,-0.083923,-0.309016,-0.119751,8.097561,4.936718
3.866415,-5.767822,-0.442505,-0.431086,0.052092,8.159233,4.982822
3.882201,-5.783081,-0.465393,-0.553157,-0.092807,8.187973,4.985217
3.898025,-5.165100,-0.343323,-1.033809,0.134720,8.136480,4.976835
3.913805,-4.997253,-0.434875,-1.102473,-0.055684,8.212522,4.862473
3.929608,-4.516602,-0.221252,-1.186396,-0.100591,8.174801,4.937916
3.945545,-4.722595,-0.213623,-0.995662,-0.162263,8.228089,4.953483
3.961205,-4.608154,-0.175476,-0.377681,-0.189805,8.250842,4.989408
3.976898,-4.508972,0.068665,0.118230,-0.159269,8.296348,4.945101
3.992584,-4.486084,0.167847,0.606511,-0.099393,8.258626,4.937916
4.008256,-4.737854,0.106812,0.835393,-0.056283,8.275392,4.945101
4.023897,-4.890442,0.389099,0.698064,-0.079634,8.247250,4.915762
4.039485,-5.645752,0.190735,0.446294,-0.031135,8.247250,4.866065
4.055085,-6.637573,0.007629,0.202153,-0.043110,8.263416,4.885225
4.070678,-7.621765,-0.045776,-0.087764,-0.056283,8.229287,4.906182
4.086318,-8.285522,-0.389099,-0.293757,-0.061672,8.235274,4.940909
4.101960,-9.048462,-0.305176,-0.492122,-0.070653,8.207732,4.969051
4.117720,-9.811401,-0.137329,-0.530269,-0.127535,8.159832,4.964859
4.133506,-11.360168,0.038147,-0.133540,-0.104782,8.136480,4.889417
4.149250,-13.107300,0.488281,0.476812,-0.119751,8.141869,4.889417
4.164986,-14.877319,0.267029,0.759099,-0.080233,8.129894,4.997192
4.180686,-16.120911,0.389099,0.385259,-0.023351,8.141869,5.125925
4.196321,-16.708374,0.152588,-0.064875,0.073048,8.160430,5.210349
4.211936,-16.937256,-0.137329,-1.041438,-0.001796,8.111332,5.283397
4.227543,-17.219543,-0.320435,-1.781489,-0.104782,7.986193,5.333693
4.243169,-18.165588,-0.358582,-2.079036,-0.084424,7.893385,5.378000
4.258739,-18.814087,-0.564575,-1.873042,-0.074246,7.841294,5.401352
4.274314,-19.569397,-0.366211,-1.766230,-0.179626,7.805368,5.533078
4.289892,-20.210266,-0.297546,-1.720454,-0.073647,7.767647,5.600737
4.305451,-20.408630,-0.099182,-1.674678,-0.290396,7.702383,5.684563
4.321027,-20.286560,0.083923,-0.965144,0.060474,7.577842,5.751025
4.336643,-19.813538,0.480652,-1.262690,-0.236508,7.545509,5.786351
4.352248,-20.133972,0.503540,-1.400020,-0.056283,7.597601,5.983342
4.367885,-19.470215,-0.259399,-1.781489,0.013771,7.559280,5.979150
4.383575,-18.493652,-0.350952,-2.429988,-0.050295,7.408993,6.013279
4.399308,-18.707275,-0.068665,-1.880671,-0.188608,7.565268,6.087525
4.415000,-17.211914,0.076294,-1.575496,-0.205373,7.425159,6.060581
4.430669,-17.127991,-0.419617,-1.224543,-0.153281,7.398215,6.064174
4.446354,-17.127991,-0.381470,-0.286128,-0.257465,7.431147,6.243800
4.462293,-15.869141,0.587463,0.667546,-0.202379,7.351512,6.340798
4.477987,-14.678955,0.389099,0.690435,-0.264650,7.379055,6.331218
4.493764,-13.717651,-0.190735,0.247930,-0.098196,7.317982,6.364150
4.509449,-12.901306,0.152588,-0.202205,-0.067061,7.211404,6.350977
4.525052,-12.619019,-0.015259,-1.369502,0.029938,7.094048,6.361156
4.540624,-12.916565,-0.549316,-2.658870,-0.023950,7.088659,6.363551
4.556168,-12.245178,-0.534058,-2.460505,-0.450862,7.184460,6.515635
4.571729,-10.963440,-0.114441,-1.773860,-0.360450,7.225175,6.541381
4.587329,-9.757996,-0.228882,-0.438716,-0.321531,7.186256,6.512042
4.602915,-8.819580,0.022888,0.423406,-0.015568,6.834787,6.368940
4.618573,-8.186340,0.373840,1.178716,-0.114362,7.317982,6.618620
4.634277,-7.293701,0.068665,1.155828,-0.144300,6.981482,6.437198
4.649996,-7.385254,-0.282288,0.514959,-0.036524,7.051536,6.450370
4.665819,-7.667542,-0.434875,-0.186946,-0.083227,7.053332,6.517431
4.681558,-7.064819,-0.297546,-0.736262,-0.174238,7.113807,6.571319
4.697262,-6.317139,-0.579834,-1.140620,-0.141306,7.106622,6.628799
4.713045,-5.424500,-0.473022,-0.949885,-0.293390,7.059919,6.577905
4.728897,-6.912231,0.419617,1.872991,0.131127,5.044510,6.474321
4.744526,-5.447388,0.953674,0.904058,0.038320,6.699469,6.583893
4.760152,-4.806519,0.122070,1.346563,-0.289199,7.233558,6.510845
4.775759,-5.538940,-0.129700,1.140569,0.067061,7.067703,6.675502
4.791393,-4.951477,-0.091553,0.575994,-0.182021,7.028185,6.594670
4.806988,-4.806519,-0.053406,-0.080134,-0.107776,6.996451,6.686879
4.822632,-4.615784,-0.404358,-0.232722,-0.208367,7.002439,6.586886
4.838252,-4.829407,-0.045776,-0.820186,-0.116158,6.979686,6.554554
4.853922,-5.607605,-0.221252,-0.865962,-0.132325,6.980284,6.614429
4.869588,-5.714417,-0.160217,-0.583674,-0.196990,6.958729,6.708434
4.885251,-5.340576,0.038147,-0.568416,-0.189207,6.952742,6.665922
4.900904,-5.554199,-0.045776,0.003789,-0.282612,6.931785,6.675502
4.916612,-5.592346,-0.030518,0.537847,-0.176034,6.924002,6.649157
4.932316,-5.821228,-0.167847,0.698064,-0.182021,7.232959,6.449772
4.947977,-6.332397,-0.152588,0.499700,-0.156874,6.855145,6.683286
4.963659,-5.882263,0.007629,0.102971,-0.111368,6.938372,6.701249
4.979414,-6.309509,-0.160217,-0.568416,-0.137115,6.765331,6.674903
4.995036,-6.393433,-0.289917,-0.904109,-0.178429,7.025191,6.655145
5.010653,-6.736755,-0.190735,-0.515010,-0.211959,6.847361,6.698255
5.026262,-7.125854,-0.289917,-0.240352,-0.122745,6.673722,6.712027
5.041851,-7.354736,-0.083923,-0.133540,-0.114961,6.791078,6.949133
5.057450,-7.110596,-0.007629,-0.446345,-0.149689,6.895860,6.888060
5.073003,-7.202148,-0.213623,-0.721003,-0.171244,6.709647,6.858122
5.088563,-7.362366,-0.236511,-0.522639,-0.273631,6.607260,6.863512
5.104137,-7.545471,0.076294,-0.240352,-0.202379,6.592291,6.931170
5.119752,-6.645203,-0.053406,-0.499751,-0.109572,6.468948,6.807827
5.135517,-7.041931,0.404358,-0.881221,-0.095202,6.640192,6.917998
5.151136,-8.125305,0.198364,-1.277949,-0.140109,6.568940,6.875486
5.166878,-9.101868,0.144958,-1.750972,-0.235909,6.611452,6.935961
5.182670,-9.460449,0.167847,-1.209285,-0.292791,6.625822,7.009607
5.198395,-8.781433,-0.648499,-0.049617,-0.313149,6.717431,7.027570
5.214055,-8.308411,-1.052856,0.896428,-0.322729,6.657556,7.001824
5.229744,-8.590698,-0.831604,2.101872,-0.337099,6.596483,7.058107
5.245402,-9.597778,0.038147,2.887700,-0.217348,6.627019,7.168278
5.261065,-8.560181,0.419617,2.796147,-0.090412,6.638994,7.065890
5.276650,-8.369446,0.762939,1.628850,0.007185,6.555767,6.974880
5.292213,-10.055542,-1.892090,0.385259,-0.043709,6.491102,6.947936
5.307804,-11.451721,-0.160217,-1.338984,-0.079634,6.582711,7.098822
5.323353,-11.665344,0.175476,-2.132442,-0.131127,6.604266,7.192827
5.338937,-11.695862,0.251770,-2.674129,-0.279020,6.653963,7.173068
5.354461,-11.642456,1.899719,-2.338435,-0.343087,6.607859,7.142531
5.370107,-11.779785,0.076294,-1.178767,-0.270637,6.394702,7.207796
5.385891,-11.985779,0.106812,-0.080134,-0.238304,6.206693,7.134748
5.401568,-12.969971,0.305176,0.728582,-0.282014,6.225853,7.284436
5.417257,-13.763428,0.114441,0.232671,-0.201780,6.162385,7.213783
5.432950,-14.106750,-0.030518,-0.026729,-0.011975,6.248606,7.344910
5.448673,-13.809204,-0.068665,0.202153,-0.293989,6.306685,7.455081
5.464346,-13.168335,-0.083923,-0.484492,-0.062271,6.309080,7.478433
5.480012,-12.817383,-0.419617,-0.309016,-0.107177,6.194718,7.468254
5.495631,-12.962341,-0.244141,-0.354792,-0.249082,6.083350,7.429335
5.511276,-13.336182,0.320435,-0.843074,-0.151485,6.049819,7.392212
5.526857,-14.083862,-0.244141,-0.888850,-0.203577,6.012098,7.407181
5.542513,-14.778137,-0.038147,-0.812556,-0.216151,5.920488,7.518549
5.558078,-15.174866,-0.251770,-0.759150,-0.199984,5.971383,7.607165
5.573704,-14.694214,-0.480652,-0.759150,-0.481998,5.839057,7.604770
5.589311,-14.625549,-0.259399,0.034307,-0.420925,5.948031,7.825710
5.604969,-13.099670,-0.167847,1.209233,-0.287402,5.922884,7.904147
5.620616,-11.528015,-0.007629,1.361821,-0.239502,5.813311,7.881395
5.636523,-10.261536,0.007629,0.812505,-0.070054,5.722899,7.812538
5.652231,-9.956360,-0.282288,0.225042,-0.179028,5.602550,7.737693
5.667918,-10.078430,-0.045776,-0.507380,-0.192799,5.545069,7.690990
5.683571,-10.742188,-0.038147,-0.797297,-0.171843,5.606741,7.755656
5.699227,-10.299683,-0.091553,-0.812556,-0.249082,5.660629,7.961628
5.714868,-8.987427,-0.396729,-0.408198,-0.169448,5.328918,7.941869
5.730533,-7.865906,-0.091553,-0.057246,-0.257465,5.578001,8.012522
5.746192,-6.607056,0.404358,0.270818,-0.246687,5.560637,7.858642
5.761806,-6.942749,0.122070,0.621770,-0.232317,5.505551,7.813735
5.777523,-7.637024,-0.114441,2.262090,-0.223336,5.527106,7.839482
5.793190,-7.499695,-0.144958,-1.567866,-0.179626,5.514533,7.896962
5.808784,-7.362366,-0.442505,-0.019099,-0.148491,5.578599,7.919715
5.824304,-7.522583,-0.228882,-0.530269,-0.163460,5.643265,8.050243
5.839873,-7.057190,-0.137329,-0.560786,-0.210762,5.752238,7.988572
5.855490,-6.439209,-0.076294,-0.606562,-0.258063,5.652246,7.898758
5.871132,-6.462097,-0.236511,-0.293757,-0.256866,5.340295,7.744280
5.886784,-6.912231,-0.457764,-0.209834,-0.295186,5.475614,7.805952
5.902407,-7.408142,0.053406,-0.309016,-0.180824,5.400769,7.780205
5.918008,-8.285522,-0.328064,-0.515010,-0.150886,5.387597,7.893969
5.933677,-8.781433,-0.122070,-0.766780,-0.192200,5.481002,8.032281
5.949339,-8.575439,-0.022888,-0.850703,-0.222138,5.457052,8.062818
5.964994,-8.369446,-0.198364,-0.522639,-0.217348,5.390590,8.117903
5.980654,-8.155823,-0.167847,-0.278499,-0.309556,5.356461,8.071798
5.996257,-8.216858,-0.198364,-0.293757,-0.337099,5.307364,8.046651
6.011875,-8.117676,-0.343323,0.133489,-0.247885,5.298382,8.084373
6.027568,-8.255005,-0.389099,0.614141,-0.280816,5.302573,8.108323
6.043172,-7.995605,-0.091553,0.675176,-0.222138,5.270240,8.119699
6.058755,-7.995605,-0.122070,0.583623,-0.079634,5.172045,8.119699
6.074327,-7.987976,-0.236511,0.492070,-0.199984,5.178631,8.152032
6.089904,-8.201599,0.030518,0.026677,-0.225132,5.181026,8.125088
6.105488,-8.377075,-0.190735,-0.118281,-0.207169,5.193600,8.174186
6.121124,-8.399963,-0.358582,-0.377681,-0.248483,5.201982,8.249030
6.136860,-8.010864,-0.053406,-0.583674,-0.214354,5.187014,8.237055
6.152515,-7.858276,0.015259,-0.713374,-0.182021,5.138515,8.204123
6.168196,-8.003235,0.000000,-0.568416,-0.247885,5.100194,8.189155
6.183894,-8.262634,-0.114441,-0.408198,-0.287402,5.025949,8.205920
6.199945,-8.361816,-0.213623,0.041936,-0.248483,4.953499,8.243641
6.216115,-8.666992,-0.053406,0.217412,-0.241897,4.946314,8.263400
6.231802,-8.613586,-0.328064,0.026677,-0.259261,4.984035,8.303516
6.247533,-8.544922,-0.244141,-0.087764,-0.194595,4.981641,8.329264
6.263153,-8.369446,-0.183105,-0.072505,-0.248483,4.964876,8.308307
6.278809,-8.529663,-0.404358,-0.057246,-0.231119,4.896019,8.301721
6.294384,-8.468628,-0.724792,0.171636,-0.229922,4.810996,8.271184
6.310021,-8.979797,-1.007080,0.270818,-0.410746,4.755311,8.241246
6.325568,-10.169983,-0.923157,0.812505,-0.212558,4.534371,8.353213
6.341164,-10.932922,-0.869751,1.453374,-0.211360,4.787644,8.431650
6.356729,-10.948181,-0.564575,1.995061,-0.247286,4.807403,8.608882
6.372381,-9.773254,-0.740051,2.590154,-0.283810,4.943919,8.703485
6.388238,-8.361816,-0.740051,2.925847,-0.201182,4.815785,8.595111
6.404322,-6.568909,0.617981,1.834844,-0.165855,4.732559,8.366386
6.423987,-7.820129,0.007629,0.690435,0.154479,4.581074,8.218493
6.440772,-10.345459,-0.244141,-0.827815,-0.257465,4.611012,8.510686
6.457055,-10.848999,0.305176,-1.941707,-0.176633,4.840933,8.544815
6.472867,-10.810852,0.068665,-1.934077,-0.246687,4.882247,8.703485
6.488549,-10.025024,0.350952,-1.476313,-0.392783,4.827162,8.686121
6.504414,-9.582520,0.282288,-0.873591,-0.250280,4.624783,8.612474
6.520176,-9.445190,-0.061035,-0.522639,-0.167053,4.402645,8.477156
6.535877,-10.391235,-0.122070,-0.728633,-0.220342,4.270918,8.462786
6.551716,-11.245728,0.190735,-1.102473,-0.162263,4.309838,8.545414
6.567439,-11.535645,-0.183105,-1.331355,-0.308359,4.379892,8.616067
6.583140,-11.390686,-0.022888,-1.064326,-0.306563,4.469107,8.743003
6.598801,-10.513306,-0.068665,-0.736262,-0.231718,4.447551,8.808866
6.614471,-9.666443,-0.175476,-0.034358,-0.241897,4.358337,8.767551
6.630094,-9.025574,-0.366211,2.284978,-0.288001,4.300258,8.729232
6.645817,-8.872986,-0.305176,0.400518,-0.238903,4.242178,8.650196
6.661497,-9.521484,-0.297546,0.499700,-0.228724,4.147575,8.608283
6.677206,-10.101318,-0.526428,0.469182,-0.241298,4.176914,8.634029
6.692807,-10.581970,-0.289917,0.331853,-0.156275,4.200864,8.759170
6.708398,-10.421753,-0.274658,0.118230,-0.153281,4.119433,8.809464
6.723975,-10.078430,-0.350952,-0.041987,-0.168849,4.105063,8.832217
6.739617,-9.475708,-0.244141,-0.049617,-0.202978,4.114045,8.851976
6.755241,-9.078979,-0.030518,-0.545527,-0.262853,4.107459,8.847186
6.770960,-8.544922,-0.114441,-0.408198,-0.244292,4.087101,8.841199
6.786626,-8.476257,-0.205994,-0.400569,-0.247885,4.006868,8.857365
6.802329,-8.453369,-0.038147,-0.835444,-0.237706,3.905678,8.829823
6.817979,-8.415222,-0.076294,-0.812556,-0.205972,3.885919,8.844193
6.833707,-8.544922,-0.122070,-0.644709,-0.218546,3.925437,8.889698
6.849425,-8.110046,-0.175476,-0.682856,-0.305964,3.973936,8.917839
6.865050,-7.720947,-0.137329,-0.606562,-0.280217,3.858377,8.948975
6.880679,-7.423401,-0.190735,-0.133540,-0.350870,3.879333,8.930413
6.896279,-7.278442,-0.480652,0.392888,-0.345482,3.791316,8.854970
6.911954,-7.614136,-0.473022,0.865911,-0.286205,3.720663,8.843594
6.927591,-7.949829,-0.495911,0.987981,-0.184417,3.789520,8.884309
6.943162,-7.942200,-0.732422,1.079534,-0.176633,3.814667,8.996276
6.958747,-7.141113,-0.709534,1.049016,-0.221539,3.776946,8.944184
6.974390,-7.141113,-1.220703,0.926946,-0.273631,3.757187,8.925623
6.990010,-7.713318,-0.930786,1.262639,-0.288001,3.773952,8.989091
7.005772,-7.278442,-0.556946,1.216863,-0.180824,3.775748,9.033399
7.021438,-7.484436,-0.579834,0.987981,-0.138911,3.751798,9.006455
7.037159,-7.362366,-0.625610,0.698064,-0.146096,3.745212,8.999270
7.052870,-7.637024,-0.366211,0.484441,-0.150287,3.708688,8.978912
7.068516,-7.621765,-0.251770,0.423406,-0.149090,3.625461,8.949574
7.084206,-7.789612,-0.274658,0.270818,-0.156874,3.590134,8.928019
7.099824,-8.193970,-0.030518,-0.270869,-0.290396,3.587141,9.016634
7.115464,-8.041382,0.099182,-0.835444,-0.274828,3.599116,9.026214
7.131090,-8.354187,0.213623,-0.957515,-0.198188,3.588937,9.033399
7.147027,-8.613586,0.114441,-0.881221,-0.342488,3.597319,9.087287
7.162674,-8.682251,0.175476,-0.827815,-0.360450,3.493735,9.069324
7.178294,-8.758545,0.083923,-0.759150,-0.234113,3.402724,9.047770
7.193912,-9.109497,-0.015259,-0.591304,-0.154479,3.341651,9.063935
7.209479,-9.048462,0.000000,-0.614192,-0.191003,3.316503,9.069324
7.225047,-9.216309,0.000000,-0.446345,-0.247885,3.339256,9.101657
7.240616,-9.094238,-0.389099,-0.072505,-0.353265,3.339855,9.125607
7.256219,-9.239197,-0.617981,0.270818,-0.352068,3.360212,9.157341
7.272008,-9.017944,-0.450134,0.667546,-0.227527,3.364404,9.237575
7.287794,-8.323669,-0.396729,0.720952,-0.203577,3.356620,9.219612
7.303512,-8.346558,-0.473022,0.606511,-0.189207,3.311713,9.121416
7.319240,-8.506775,-0.305176,0.324224,-0.181423,3.118914,9.076509
7.334929,-9.422302,-0.137329,-0.247981,-0.136516,3.080594,9.051960
7.350786,-10.078430,-0.152588,-0.522639,-0.114961,3.075804,9.180094
7.366424,-9.948730,-0.030518,-0.858333,-0.172441,3.191364,9.286673
7.382123,-9.414673,0.167847,-1.056697,-0.182021,3.171006,9.271704
7.397979,-8.575439,0.701904,-1.262690,-0.198787,3.020120,9.033998
7.413651,-9.681702,0.793457,-1.689937,-0.180225,2.881208,8.963943
7.429301,-11.779785,0.549316,-2.063777,-0.277822,2.819537,9.072318
7.444924,-11.703491,0.572205,-1.796748,-0.258662,2.971022,9.380078
7.460516,-10.482788,0.572205,-1.300837,-0.268841,3.103347,9.481268
7.476061,-8.949280,0.328064,-0.980403,-0.361049,2.943479,9.528569
7.491640,-8.148193,0.114441,-0.598933,-0.396974,2.809358,9.388461
7.507194,-7.736206,-0.228882,0.026677,-0.353864,2.862048,9.321999
7.522831,-7.591248,-0.648499,0.568364,-0.290396,2.762655,9.242963
7.538429,-7.980347,-0.808716,0.896428,-0.252675,2.696193,9.274697
7.554118,-8.125305,-0.656128,0.919316,-0.198787,2.711162,9.229192
7.569840,-8.857727,-0.717163,0.873540,-0.150886,2.723137,9.242365
7.585596,-9.239197,-0.762939,0.911687,-0.210762,2.667453,9.280684
7.601363,-9.193420,-0.640869,0.698064,-0.226329,2.862048,9.375288
7.617061,-9.407043,-0.976562,0.499700,-0.246687,2.821333,9.577667
7.632832,-9.559631,-0.518799,0.659917,-0.281415,2.798580,9.470490
7.648614,-9.635925,-0.457764,0.598882,-0.194595,2.730322,9.416003
7.664199,-9.529114,-0.450134,0.507329,-0.217348,2.574047,9.288468
7.679804,-10.139465,-1.319885,0.759099,-0.270038,2.520758,9.086688
7.695495,-12.565613,-1.251221,0.804875,-0.305365,2.460284,9.260926
7.711065,-13.671875,-0.625610,0.530217,-0.218546,2.461481,9.432769
7.726660,-13.832092,-0.312805,0.240300,-0.117955,2.488425,9.556711
7.742232,-13.237000,-0.427246,0.308965,-0.095801,2.584825,9.622574
7.757855,-12.145996,-0.434875,0.202153,-0.240101,2.610571,9.657901
7.773469,-11.199951,-0.335693,-0.148799,-0.336500,2.504592,9.640536
7.789091,-10.581970,-0.228882,-0.484492,-0.318538,2.419569,9.465700
7.804806,-10.704041,-0.419617,-0.225093,-0.229323,2.231560,9.381275
7.820482,-11.894226,-0.595093,-0.209834,-0.204175,2.120790,9.269907
7.836222,-13.404846,-0.511169,0.324224,-0.059875,1.810635,9.271704
7.851935,-15.029907,-0.816345,2.002690,0.125140,1.875300,9.529767
7.867714,-14.381409,-0.923157,1.758550,-0.189207,2.062112,9.651314
7.883432,-13.320923,-0.724792,1.911138,-0.269440,2.136357,9.711189
7.899108,-12.428284,-0.999451,2.231572,-0.226329,2.111210,9.808786
7.914904,-10.871887,-1.022339,1.537297,-0.299976,2.064507,9.897403
7.930582,-10.353088,-0.900269,1.430486,-0.290396,1.876498,9.481268
7.946283,-9.986877,-0.267029,0.797246,-0.217947,1.808838,9.530964
7.961941,-10.383606,0.205994,-0.072505,-0.213755,1.852548,9.438756
7.977539,-11.230469,0.198364,-0.316646,-0.120948,1.913621,9.473484
7.993149,-12.458801,0.572205,-0.698115,-0.058079,1.871708,9.540545
8.008715,-13.458252,0.534058,-1.049067,-0.076042,1.849554,9.649518
8.024325,-13.504028,0.717163,-1.110103,-0.094603,1.744173,9.715980
8.039964,-13.160706,0.801086,-1.590754,-0.163460,1.672921,9.678258
8.055643,-13.099670,0.999451,-1.956965,-0.206570,1.644780,9.695621
8.071355,-12.969971,0.625610,-1.895930,-0.216151,1.637595,9.707597
8.087034,-13.061523,0.671387,-1.827266,-0.296982,1.651366,9.714782
8.102757,-13.526917,0.938416,-2.323176,-0.350870,1.611249,9.705801
8.118492,-13.809204,0.885010,-2.338435,-0.244292,1.499282,9.604012
8.134251,-14.297485,0.671387,-2.307918,-0.222138,1.348396,9.642333
8.150272,-14.282227,0.335693,-1.682307,-0.313748,1.275348,9.597426
8.166086,-14.564514,0.450134,-1.224543,-0.341290,1.223256,9.704603
8.181840,-14.076233,0.122070,-0.980403,-0.350870,1.192121,9.733942
8.197488,-13.626099,0.137329,-0.774409,-0.319136,1.120869,9.733343
8.213091,-13.008118,-1.724243,-0.988032,-0.070653,1.058000,9.799207
8.228701,-12.672424,-0.808716,0.232671,-0.190404,1.137634,9.647122
8.244280,-12.992859,-1.380920,0.263188,-0.332309,1.169967,9.792022
8.260437,-12.084961,-1.014709,0.286077,-0.358654,1.066981,9.811182
8.276021,-11.131287,-1.251221,0.644658,-0.243094,0.898132,9.720171
8.291579,-10.475159,-1.708984,1.575444,-0.134121,0.729283,9.656703
8.307200,-10.520935,-1.968384,2.902959,-0.094603,0.746049,9.655505
8.322843,-10.520935,-1.846313,2.323125,-0.205373,0.826881,9.683647
8.338652,-10.169983,-1.533508,2.002690,-0.224533,0.864602,9.839922
8.354379,-9.811401,-1.243591,2.025578,-0.214953,0.861010,9.821959
8.370130,-9.552002,-1.464844,2.140019,-0.203577,0.831671,9.847706
8.385886,-8.499146,-1.747131,2.269719,-0.174836,0.807720,9.897403
8.401706,-7.934570,-1.472473,0.415776,-0.141905,0.787363,9.729751
8.417522,-7.965088,-1.953125,1.926396,-0.156874,0.751437,9.606407
8.433289,-8.903503,-2.044678,4.230474,-0.120948,0.682581,9.522582
8.449052,-10.658264,-2.471924,2.384160,-0.086221,0.713716,9.563297
8.464734,-11.726379,-1.487732,1.880620,-0.070653,0.567021,9.725559
8.480394,-11.573792,-0.984192,1.354192,-0.054487,0.681383,9.911174
8.496149,-11.222839,-0.511169,0.850652,-0.081431,0.704136,10.050085
8.511781,-9.880066,-0.419617,0.598882,-0.132325,0.628094,10.112355
8.527378,-8.682251,-0.389099,0.316594,-0.159269,0.653840,10.095591
8.542969,-7.774353,-0.404358,0.194524,-0.178429,0.720302,9.926742
8.558549,-7.736206,-0.350952,0.202153,-0.170046,0.600551,9.783040
8.574167,-8.476257,-0.473022,0.270818,-0.209564,0.454455,9.608803
8.589772,-9.902954,0.076294,-0.423457,-0.191003,0.162861,9.587846
8.605583,-11.077881,0.480652,-0.919368,-0.141306,0.275427,9.614790
8.621282,-11.978149,0.480652,-1.148250,-0.131726,0.282014,9.710590
8.637010,-11.787415,0.663757,-1.186396,-0.131127,0.186812,9.726757
8.653045,-12.443542,1.014709,-1.140620,-0.134720,0.143701,9.626765
8.668832,-13.626099,1.350403,-1.956965,-0.125140,0.231119,9.748911
8.684654,-13.633728,1.480103,-2.384212,-0.132325,0.295785,9.982426
8.700440,-13.008118,1.594543,-2.124812,-0.193997,0.315544,10.026733
8.716147,-12.893677,0.907898,-1.613643,-0.219144,0.275427,10.059066
8.731799,-12.596130,0.411987,-1.171138,-0.316741,0.313748,10.221928
8.747494,-9.803772,0.427246,-0.812556,-0.263452,0.183818,9.992604
8.763216,-10.795593,0.541687,-1.209285,-0.168849,-0.005988,9.890816
8.778922,-11.123657,0.663757,-1.369502,-0.145497,-0.157473,9.697418
8.794476,-12.107849,0.862122,-1.773860,-0.235909,-0.244292,9.640536
8.810120,-13.107300,0.785828,-1.812007,-0.314945,-0.266446,9.611197
8.825736,-13.717651,0.656128,-1.316096,-0.230521,-0.287402,9.819564
8.841347,-13.572693,0.617981,-1.285579,-0.233514,-0.209564,9.880637
8.857047,-13.145447,0.740051,-1.178767,-0.300575,-0.290396,9.952488
8.872676,-12.245178,0.511169,-0.820186,-0.234113,-0.272433,9.863873
8.888439,-11.657715,-0.030518,-0.423457,-0.233514,-0.315544,9.861477
8.904154,-11.177063,-0.473022,0.102971,-0.325124,-0.370031,9.858483
8.919976,-10.803223,-0.564575,0.102971,-0.310155,-0.404758,9.837527
8.935723,-10.276794,-0.137329,-0.217463,-0.197589,-0.540077,9.772861
8.951481,-10.276794,-0.137329,-0.347163,-0.096998,-0.567021,9.701011
8.967180,-10.391235,-0.495911,-0.301387,-0.180824,-0.553848,9.753701
8.982996,-10.551453,-0.343323,-0.263240,-0.200583,-0.584385,9.817169
8.998630,-10.780334,-0.022888,-0.072505,-0.249082,-0.591570,9.809984
9.014357,-10.513306,-0.381470,0.148748,-0.278421,-0.596959,9.902791
9.030115,-10.192871,-0.617981,0.431035,-0.271835,-0.643063,9.859082
9.045844,-9.979248,-0.671387,0.652288,-0.244891,-0.678389,9.900396
9.061475,-9.887695,-0.640869,0.568364,-0.213157,-0.729882,9.865069
9.077110,-9.857178,-0.602722,0.232671,-0.174238,-0.723296,9.814775
9.092771,-10.025024,-0.640869,0.293706,-0.144899,-0.735870,9.823755
9.108447,-10.261536,-0.419617,0.316594,-0.018561,-0.732277,9.776454
9.124090,-10.604858,-0.511169,0.270818,-0.148491,-0.762215,9.793219
9.139750,-10.643005,-0.579834,0.202153,-0.164658,-0.826881,9.852496
9.155488,-10.826111,-0.549316,0.438665,-0.240699,-0.805325,9.784238
9.171120,-10.887146,-0.602722,0.644658,-0.246687,-0.899929,9.832138
9.186840,-11.306763,-0.442505,0.438665,-0.234712,-0.899929,9.757294
9.202653,-11.528015,-0.198364,0.118230,-0.247286,-0.989143,9.745318
9.218356,-12.268066,0.221252,-0.232722,-0.086221,-0.965792,9.687240
9.234094,-12.908936,0.427246,-0.637080,-0.110770,-1.026865,9.690233
9.249872,-13.954163,0.732422,-1.216914,-0.167651,-1.067580,9.677060
9.265507,-14.610291,1.388550,-2.071406,-0.210762,-1.109493,9.818367
9.281107,-14.183044,1.777649,-2.140071,-0.191003,-1.186133,9.878841
9.296667,-13.587952,0.984192,-1.850154,-0.201780,-1.174757,9.871655
9.312262,-13.938904,0.526428,-1.079585,-0.274230,-1.194516,9.857884
9.327873,-14.160156,0.099182,-0.385310,-0.329315,-1.185535,9.839323
9.343482,-14.450073,-0.045776,-0.171687,-0.308359,-1.238824,9.838125
9.359093,-14.526367,-0.419617,0.072454,-0.283211,-1.380130,9.814775
9.374735,-14.694214,-0.663757,-1.522090,-0.242496,-1.477727,9.738732
9.390681,-14.999390,-0.259399,-0.011470,-0.256866,-1.543590,9.630358
9.407658,-15.632629,-0.205994,-0.415828,-0.186812,-1.569935,9.661493
9.426408,-16.166687,-0.152588,-1.125361,-0.101788,-1.492696,9.674067
9.443322,-17.906189,0.205994,-0.911738,-0.129331,-1.566343,9.915964
9.459542,-18.486023,0.968933,-1.316096,-0.103585,-1.674119,9.778250
9.475434,-18.356323,0.892639,-1.987483,-0.229323,-1.771117,9.735140
9.491047,-18.249512,1.426697,-1.667048,-0.265847,-1.880090,9.728554
9.506762,-18.013000,1.335144,-1.865413,-0.280816,-1.892065,9.766873
9.522690,-18.089294,1.235962,-2.407100,-0.384401,-1.928589,9.630957
9.538500,-18.554688,2.136230,-2.750422,-0.386796,-2.050735,9.680055
9.554287,-18.775940,2.220154,-2.643611,-0.232317,-2.008823,9.570482
9.570163,-19.393921,1.373291,-1.880671,-0.105381,-2.122586,9.641135
9.585947,-19.195557,0.671387,-1.239802,-0.007784,-2.280059,9.642333
9.601746,-18.669128,0.724792,-1.277949,-0.168849,-2.465672,9.641135
9.617491,-18.119812,0.885010,-1.491572,-0.199984,-2.454296,9.615389
9.633306,-17.349243,0.900269,-1.430537,-0.235909,-2.434537,9.528569
9.649038,-17.318726,0.686646,-1.522090,-0.314945,-2.483635,9.551322
9.665530,-17.333984,0.846863,-3.368403,-0.361049,-2.590214,9.540545
9.681362,-17.021179,1.083374,-1.163508,-0.348475,-2.699187,9.562698
9.697031,-16.349792,0.289917,-0.728633,-0.343685,-2.739902,9.558507
9.712699,-15.762329,0.167847,-0.515010,-0.389191,-2.733915,9.519588
9.728312,-15.068054,-0.076294,-0.415828,-0.359852,-2.771038,9.438756
9.743928,-15.098572,-0.404358,-0.148799,-0.247885,-2.816543,9.520186
9.759474,-14.991760,-0.564575,0.102971,-0.255668,-2.881807,9.492644
9.775068,-14.122009,-0.709534,0.164006,-0.286804,-3.050057,9.434565
9.790724,-13.053894,-0.312805,-0.026729,-0.247885,-3.127896,9.358523
9.806447,-12.245178,-0.442505,-0.072505,-0.255668,-3.124902,9.362116
9.822165,-11.680603,-0.755310,-0.095393,-0.451461,-3.053650,9.396843
9.837953,-11.619568,-0.701904,0.102971,-0.457449,-3.005151,9.442947
9.853701,-11.169434,-0.556946,0.278447,-0.280217,-3.023712,9.380078
9.869492,-11.489868,-0.930786,0.385259,-0.213157,-3.066823,9.405825
9.885273,-11.795044,-1.052856,0.446294,-0.211360,-3.141068,9.422589
9.901002,-11.962891,-0.839233,0.293706,-0.245490,-3.118914,9.418997
9.916831,-11.970520,-0.740051,0.194524,-0.231718,-3.114723,9.436960
9.932559,-12.237549,-0.503540,0.110601,-0.158071,-3.151247,9.447139
9.948304,-12.634277,0.038147,-0.385310,-0.110171,-3.153043,9.387862
9.964030,-13.175964,0.938416,-0.988032,-0.092208,-3.200944,9.401034
9.979640,-13.740540,1.152039,-1.651790,-0.138312,-3.304528,9.432170
9.995262,-13.610840,1.441956,-1.743342,-0.255070,-3.334466,9.432769
10.010883,-13.710022,1.228333,-1.544978,-0.376617,-3.309318,9.362116
10.026491,-14.221191,1.029968,-1.438166,-0.200583,-3.283572,9.250747
10.042110,-15.075684,1.235962,-1.682307,-0.265248,-3.465593,9.256136
10.057789,-15.640259,0.724792,-1.209285,-0.246687,-3.593727,9.144768
10.073480,-15.899658,0.114441,-0.690486,-0.272433,-3.609294,9.147162
10.089176,-15.556335,0.106812,-0.659968,-0.330513,-3.742817,9.216618
10.104890,-15.266418,0.396729,-0.644709,-0.234712,-3.747607,9.199853
10.120636,-15.029907,0.282288,-0.698115,-0.163460,-3.764372,9.169915
10.136501,-15.205383,-0.091553,-0.316646,-0.209564,-3.827241,9.147761
10.152225,-15.136719,-0.511169,-0.637080,-0.527503,-3.658392,9.177100
10.168842,-15.159607,-0.007629,-0.522639,-0.419727,-3.741619,9.180094
10.184510,-14.739990,-0.671387,0.186895,-0.350870,-3.917653,9.065133
10.200406,-14.968872,-0.656128,0.331853,-0.273032,-4.054768,8.981906
10.216035,-14.778137,-0.625610,0.255559,-0.294587,-4.097280,8.960351
10.231768,-15.037537,-0.205994,-0.110652,-0.226928,-4.118835,9.068726
10.247423,-14.907837,-0.389099,-0.370051,-0.220941,-4.148773,9.120817
10.263063,-14.610291,-0.442505,-0.347163,-0.284409,-4.151167,9.130996
10.278643,-13.870239,-0.259399,-0.270869,-0.336500,-4.218228,9.119619
10.294273,-13.183594,-0.259399,-0.263240,-0.386796,-4.085305,8.892093
10.309854,-13.229370,-0.564575,-0.133540,-0.397573,-4.323010,9.059744
10.325469,-13.069153,-0.923157,0.171636,-0.368833,-4.349356,8.998672
10.341071,-12.969971,-1.029968,0.064824,-0.306563,-4.428391,8.880716
10.356826,-12.573242,-0.389099,-0.164058,-0.240101,-4.483477,8.796292
10.372518,-12.313843,-0.068665,-0.446345,-0.221539,-4.477489,8.827427
10.388308,-12.084961,0.106812,-0.606562,-0.241298,-4.479884,8.851976
10.404125,-11.688232,0.587463,-0.873591,-0.274230,-4.537963,8.859161
10.419939,-10.818481,0.747681,-1.079585,-0.271835,-4.616999,8.818446
10.435650,-10.353088,0.152588,-0.652339,-0.269440,-4.675677,8.756176
10.451301,-9.979248,-0.335693,-0.087764,-0.262255,-4.641548,8.807669
10.467035,-9.788513,-0.450134,-0.041987,-0.342488,-4.641548,8.818446
10.482693,-9.925842,-0.434875,-0.141169,-0.161065,-4.630770,8.845390
10.498303,-9.735107,-0.373840,-0.171687,-0.267643,-4.661905,8.844193
10.513932,-9.483337,-0.526428,-0.057246,-0.274828,-4.713398,8.847186
10.529502,-9.262085,-0.015259,-0.339534,-0.252076,-4.757706,8.713664
10.545083,-8.506775,0.381470,-0.568416,-0.218546,-5.118157,8.489730
10.560661,-8.049011,0.473022,-0.659968,-0.086819,-4.964876,8.648399
10.576271,-8.262634,0.297546,-0.942256,-0.167053,-4.889432,8.640018
10.591974,-7.667542,0.282288,-0.705745,-0.276026,-4.846322,8.647800
10.607578,-7.469177,0.473022,-0.736262,-0.456251,-5.120552,8.417280
10.623263,-7.316589,0.190735,-0.476863,-0.349673,-5.010381,8.733423
10.639024,-7.667542,-0.320435,-0.438716,-0.388592,-4.875661,8.799885
10.654843,-7.461548,-0.167847,-0.530269,-0.399968,-4.869075,8.750787
10.671127,-7.354736,0.015259,-0.545527,-0.337099,-4.879852,8.727435
10.686898,-7.621765,-0.137329,-0.415828,-0.199984,-5.207970,8.746595
10.702665,-8.438110,-0.381470,-0.270869,-0.210762,-4.951703,8.754379
10.718379,-9.292603,-0.404358,-0.324275,-0.211360,-4.788842,8.760366
10.734146,-9.048462,-0.350952,-0.103022,-0.196990,-4.968468,8.689115
10.749814,-8.666992,-0.625610,0.019048,-0.283810,-5.024152,8.660375
10.765503,-8.590698,-0.335693,-0.370051,-0.339494,-5.010381,8.592116
10.781189,-9.025574,0.045776,-0.682856,-0.368234,-5.037924,8.497514
10.796771,-9.666443,0.350952,-0.736262,-0.300575,-5.078040,8.596907
10.812385,-10.002136,0.358582,-0.690486,-0.219144,-5.104385,8.500507
10.827916,-10.345459,-0.053406,-0.324275,-0.231119,-5.187014,8.487334
10.843533,-10.566711,-0.091553,-0.362422,-0.310155,-5.343887,8.458594
10.859090,-10.940552,-0.511169,0.087712,-0.323328,-5.203779,8.428058
10.874764,-11.489868,-1.060486,0.354741,-0.355062,-5.235513,8.456200
10.890530,-11.711121,-1.220703,0.514959,-0.337099,-5.244494,8.480748
10.906259,-11.711121,-1.113892,0.415776,-0.256866,-5.261858,8.480149
10.922009,-11.825562,-0.640869,0.400518,-0.187410,-5.327122,8.440033
10.937805,-11.985779,-1.014709,0.446294,-0.205373,-5.355863,8.393330
10.953568,-12.458801,-0.556946,0.194524,-0.223934,-5.303771,8.406503
10.969313,-12.443542,0.183105,-0.179316,-0.027543,-5.497169,8.246635
10.985029,-11.573792,0.923157,-0.926997,-0.155078,-5.680986,8.202926
11.000833,-11.215210,1.037598,-0.873591,-0.159269,-5.638475,8.229271
11.016470,-10.963440,1.121521,-0.995662,-0.199984,-5.636679,8.096348
11.032083,-11.024475,0.869751,-0.949885,-0.259860,-5.600154,8.193346
11.047694,-11.001587,0.701904,-0.721003,-0.228126,-5.598358,8.297529
11.063303,-10.482788,0.335693,-0.476863,-0.288001,-5.627697,8.350819
11.078928,-10.078430,-0.007629,-0.110652,-0.387993,-5.639073,8.322079
11.094557,-9.971619,0.114441,-0.232722,-0.354463,-5.623506,8.307110
11.110163,-10.078430,-0.190735,-0.301387,-0.330513,-5.658234,8.258610
11.125875,-9.986877,0.030518,-0.492122,-0.326920,-5.690567,8.200531
11.141557,-9.971619,0.358582,-0.812556,-0.320933,-5.751040,8.133471
11.157308,-10.208130,0.259399,-0.721003,-0.241298,-5.805527,8.031682
11.173149,-10.330200,-0.228882,-0.659968,-0.274230,-5.891748,8.002343
11.188881,-10.360718,-0.488281,-0.194575,-0.247286,-5.956414,7.955640
11.204573,-9.880066,-0.259399,-0.064875,-0.200583,-5.990542,7.921511
11.220316,-9.757996,-0.350952,-0.133540,-0.228724,-6.027067,7.891573
11.236075,-9.712219,-0.396729,0.003789,-0.273032,-6.027067,7.861636
11.251740,-9.422302,-0.038147,-0.278499,-0.322729,-6.072572,7.870018
11.267612,-9.040833,0.198364,-0.324275,-0.287402,-6.067183,7.946659
11.283261,-8.544922,-0.076294,-0.362422,-0.307760,-6.003117,7.996954
11.298994,-8.293152,-0.228882,-0.125911,-0.351469,-5.988148,8.016114
11.314636,-8.285522,-0.305176,0.072454,-0.335901,-5.976771,8.029886
11.330250,-8.811951,-0.907898,0.446294,-0.236508,-6.004314,8.053237
11.345824,-9.262085,-2.037048,0.789617,-0.279619,-5.994734,8.059225
11.361498,-9.368896,-2.258301,0.972722,-0.350272,-6.015091,8.021503
11.377137,-9.193420,-1.647949,0.560735,-0.334105,-6.096522,7.911333
11.392829,-9.574890,-1.075745,0.034307,-0.234113,-6.146219,7.840081
11.408440,-9.475708,-0.373840,-0.316646,-0.192799,-6.231242,7.813137
11.424178,-9.162903,-0.129700,-0.400569,-0.155676,-6.291716,7.787390
11.439938,-8.140564,-0.518799,-0.255610,-0.284409,-6.330037,7.776613
11.455670,-7.659912,-0.579834,0.041936,-0.172441,-6.306685,7.728113
11.471398,-7.743835,-0.251770,-0.133540,-0.237706,-6.321055,7.662849
11.487141,-8.316040,0.724792,-0.583674,-0.193997,-6.365962,7.581419
11.502895,-8.399963,1.579285,-0.988032,-0.240699,-6.330636,7.558666
11.518621,-8.361816,0.991821,-1.064326,-0.207768,-6.365962,7.647880
11.534509,-8.132935,0.656128,-0.843074,-0.252675,-6.377937,7.710750
11.550151,-5.905151,0.495911,-0.453975,-0.277822,-6.379733,7.720330
11.565814,-9.757996,0.411987,-0.247981,-0.258662,-6.438411,7.695182
11.581465,-7.110596,0.007629,-0.240352,-0.254471,-6.459967,7.694583
11.597103,-5.989075,0.289917,-0.301387,-0.283211,-6.515651,7.698175
11.612696,-4.470825,0.625610,-0.461604,-0.169448,-6.562354,7.628720
11.628298,-3.929138,0.808716,-0.682856,-0.193997,-6.527626,7.530524
11.643853,-3.883362,1.152039,-0.858333,-0.228724,-6.494095,7.493402
11.659433,-4.127502,1.205444,-0.721003,-0.218546,-6.521039,7.465859
11.675223,-4.020691,1.007080,-0.705745,-0.170645,-6.553971,7.444304
11.690894,-3.921509,0.663757,-0.812556,-0.407153,-6.666537,7.533518
11.706559,-4.501343,0.976562,-0.728633,-0.432301,-6.534811,7.450890
11.722212,-4.211426,0.656128,-0.431086,-0.283211,-6.580316,7.535315
11.737995,-3.356934,0.297546,-0.331904,-0.359253,-6.638994,7.542500
11.753803,-3.280640,0.259399,-0.103022,-0.371228,-6.682105,7.618541
11.769554,-2.861023,0.106812,-0.217463,-0.322130,-6.676716,7.616146
11.785354,-1.655579,0.106812,-0.339534,-0.312550,-6.608458,7.616745
11.801181,-0.465393,-0.221252,-0.080134,-0.326920,-6.652167,7.614350
11.816799,0.167847,-0.518799,-0.171687,-0.306563,-6.613846,7.583215
11.832517,1.289368,-0.854492,0.194524,-0.320334,-6.626420,7.504179
11.848084,1.632690,-0.862122,0.263188,-0.310754,-6.661747,7.425742
11.863723,2.342224,-1.045227,0.293706,-0.290396,-6.673123,7.354490
11.879313,3.128052,-0.930786,0.278447,-0.229922,-6.716234,7.355089
11.894884,4.318237,-0.671387,0.164006,-0.196990,-6.757547,7.334732
11.910505,5.821228,-0.488281,0.072454,-0.173040,-6.749764,7.351497
11.926093,7.141113,-0.297546,0.331853,-0.204175,-6.719826,7.349700
11.941941,8.064270,-0.762939,0.507329,-0.225132,-6.646778,7.337126
11.957719,8.850098,-1.228333,0.614141,-0.247286,-6.654562,7.428137
11.973467,9.727478,-1.396179,0.637029,-0.292791,-6.618038,7.492803
11.989222,11.093140,-0.938416,0.789617,-0.280816,-6.588699,7.580221
12.005115,12.977600,-0.770569,0.652288,-0.303569,-6.536607,7.468853
12.020856,14.167786,-0.343323,0.438665,-0.301174,-6.428831,7.679016
12.036638,15.159607,-0.030518,0.324224,-0.244292,-6.437812,7.651473
12.052491,16.181946,-0.572205,0.377629,-0.211959,-6.419850,7.704163
12.068154,17.295837,-1.831055,0.965093,-0.244292,-6.422843,7.711348
12.083793,18.684387,-1.914978,1.186345,-0.331710,-6.374344,7.677219
12.099539,20.545959,-1.548767,1.239751,-0.344883,-6.387517,7.595788
12.115148,21.179199,-1.304626,0.881169,-0.396376,-6.274353,7.720330
12.130786,22.064209,-1.335144,0.827764,-0.319136,-6.189329,7.648479
12.146367,22.171021,-0.694275,0.820134,-0.137714,-6.031857,7.738891
12.161958,22.666931,-0.938416,1.232122,-0.052092,-6.103707,7.968813
12.177694,22.132874,-1.914978,1.216863,-0.040715,-5.837860,7.950252
12.193294,22.735596,-1.091003,1.056646,-0.290995,-5.871390,8.256814
12.208969,23.765564,-1.029968,1.224492,-0.190404,-5.695356,8.089762
12.224663,24.856567,-0.907898,1.255010,-0.181423,-5.793552,8.184364
12.240326,27.168274,-1.037598,0.942205,-0.322130,-5.717510,8.192148
12.256046,27.915955,0.404358,0.370000,-0.273631,-5.582790,8.298727
12.271755,28.633118,1.304626,-0.186946,-0.105980,-5.492977,8.457995
12.287437,27.557373,0.457764,-0.835444,-0.013173,-5.336103,8.365189
12.303080,26.954651,1.182556,-0.949885,-0.182620,-5.221143,8.435243
12.318834,27.458191,2.136230,-0.934626,-0.143701,-5.370233,8.415484
12.334535,27.626038,2.311707,-1.049067,-0.228724,-5.295388,8.284357
12.350211,28.488159,1.785278,-0.896479,-0.355062,-5.319338,8.372972
12.365848,29.647827,2.861023,-0.377681,-0.320933,-5.279222,8.378361
12.381552,31.219482,3.189087,-0.408198,-0.279020,-5.184618,8.423267
12.397129,32.279968,2.616882,-0.263240,-0.320933,-5.154082,8.432848
12.412781,32.287598,2.502441,0.072454,-0.417931,-4.690047,9.029208
12.428384,30.830383,-0.038147,1.018499,-0.220941,-4.688251,8.960351
12.444004,30.853271,-1.075745,1.041387,-0.438887,-4.475094,8.900476
12.459653,31.867981,-1.480103,2.063725,-0.441282,-4.382886,9.111835
12.475298,32.417297,-2.418518,2.124761,-0.345482,-4.291276,9.187279
12.490947,31.974792,-2.189636,2.323125,-0.380808,-4.318819,9.110639
12.506623,31.890869,-1.693726,1.979802,-0.444875,-4.193679,9.086089
12.522294,32.241821,-1.419067,1.262639,-0.201182,-4.348158,8.874130
12.538029,31.486511,-1.358032,1.361821,-0.215552,-4.034410,8.951968
12.553723,31.135559,-1.197815,1.049016,-0.222737,-3.931425,8.972925
12.569399,29.327393,0.022888,0.652288,-0.312550,-3.934418,8.977715
12.585002,27.633667,0.564575,0.316594,-0.223336,-3.854185,9.075312
12.600604,27.992249,0.831604,-0.118281,-0.221539,-3.781137,9.219612
12.616349,28.930664,0.144958,0.339482,-0.195194,-3.631448,9.402232
12.632065,29.800415,-1.106262,1.209233,-0.287402,-3.539839,9.416003
12.647710,29.067993,-1.113892,1.461003,-0.540077,-3.286566,9.598025
12.663319,27.526855,-0.671387,1.468633,-0.583187,-3.342250,9.321999
12.679046,28.953552,-0.381470,0.904058,-0.355062,-3.363805,9.272901
12.694687,28.564453,-1.060486,1.140569,-0.245490,-3.344645,9.321400
12.710284,28.900146,-0.701904,1.056646,-0.262853,-3.268004,9.450731
12.726030,29.357910,-0.114441,0.804875,-0.218546,-3.125500,9.401034
12.741710,29.449463,-0.633240,1.079534,-0.204175,-3.094365,9.236377
12.757444,28.785706,-1.113892,1.377080,-0.256267,-2.935695,9.367504
12.773202,27.236938,-1.373291,1.705144,-0.329315,-2.750081,9.509409
12.788944,27.595520,-0.694275,1.186345,-0.402962,-2.689008,9.605210
12.804692,27.664185,-0.610352,1.094792,-0.348475,-2.466870,9.649518
12.820416,27.832031,-1.304626,1.659368,-0.332309,-2.415976,9.634549
12.836202,28.007507,-1.495361,1.651738,-0.518522,-2.171684,9.690832
12.851905,26.992798,-0.747681,1.369451,-0.436492,-2.224973,9.642932
12.867499,26.145935,-0.465393,0.865911,-0.292791,-2.235751,9.591438
12.883218,25.115967,-0.961304,1.071904,-0.195194,-2.151326,9.574674
12.898849,24.200439,-1.373291,1.392339,-0.179626,-2.153123,9.533958
12.914429,23.841858,-1.144409,1.163457,-0.164658,-2.138154,9.575273
12.930024,23.460388,-0.862122,1.239751,-0.131726,-2.065704,9.645926
12.945622,23.216248,-1.014709,1.644109,-0.250280,-1.978286,9.668678
12.961250,22.445679,-0.640869,1.155828,-0.410746,-1.845961,9.705801
12.976831,22.117615,-0.389099,0.621770,-0.435295,-1.743574,9.867465
12.992592,22.460938,-0.144958,0.339482,-0.389191,-1.641187,9.877644
13.008290,22.651672,-0.404358,0.446294,-0.324525,-1.678909,9.983025
13.024037,24.124146,-1.029968,1.079534,-0.398172,-1.704655,9.811780
13.039787,25.138855,-0.640869,1.338933,-0.358654,-1.671724,9.701610
13.055526,24.818420,-0.907898,1.308416,-0.224533,-1.642385,9.638142
13.071285,25.100708,-1.037598,1.117681,-0.004790,-1.625620,9.701011
13.086976,25.642395,-0.366211,0.995610,-0.054487,-1.537603,9.712986
13.102736,25.817871,0.404358,-0.110652,-0.247286,-1.370550,9.757893
13.118437,25.611877,1.098633,-0.888850,-0.235909,-1.240021,9.753102
13.134109,25.749207,1.319885,-1.438166,-0.236508,-1.210682,9.778250
13.149773,26.046753,1.152039,-1.636531,-0.440684,-1.134640,9.864470
13.165377,29.014587,1.670837,-1.682307,-0.481998,-1.055006,9.975840
13.181099,28.984070,1.739502,-1.644160,-0.411943,-0.929866,9.924945
13.196710,29.617310,0.175476,-0.446345,-0.227527,-0.687969,9.896205
13.212270,29.846191,-0.503540,1.041387,-0.301772,-0.643661,9.697418
13.227923,29.388428,-0.549316,1.537297,-0.334105,-0.662223,9.581859
13.243471,27.946472,-0.869751,1.232122,-0.392184,-0.516725,9.696220
13.259200,27.885437,-0.907898,1.277898,-0.473615,-0.455652,9.832138
13.274871,28.617859,-0.877380,1.789067,-0.454455,-0.341290,9.890217
13.290590,29.426575,-0.915527,1.430486,-0.443677,-0.241897,9.981827
13.306379,30.761719,-1.274109,1.811956,-0.259261,-0.122745,9.909377
13.322146,29.891968,-2.082825,2.735112,-0.205972,0.150287,9.832138
13.337865,29.640198,-2.685547,3.452275,-0.277822,0.051493,9.666882
13.353547,29.357910,-2.265930,3.658269,-0.313748,0.070653,9.677659
13.369269,29.273987,-2.685547,3.948186,-0.168250,0.124541,9.675264
13.385006,28.907776,-3.158569,4.184697,-0.035925,0.339494,9.914766
13.404196,29.365540,-2.853394,3.681157,-0.341889,0.479004,9.871058
13.420667,29.075623,-0.679016,2.719853,-0.122745,0.712518,9.837527
13.436465,28.739929,-1.266479,2.109502,0.018561,0.735870,9.771664
13.452315,28.251648,-0.030518,2.147649,-0.201780,0.789758,9.838724
13.467970,28.305054,-1.472473,2.086614,-0.216749,0.969983,9.940513
13.484073,28.831482,1.625061,0.370000,0.011376,1.343007,10.057869
13.499822,30.136108,-0.030518,0.850652,0.265248,1.070574,9.839323
13.515508,29.624939,0.450134,0.278447,-0.241298,0.903521,9.899199
13.531096,30.204773,1.098633,-1.323726,-0.377814,0.940045,9.657901
13.546802,31.044006,1.159668,-1.445796,-0.337698,0.927471,9.592037
13.562615,31.486511,1.586914,-2.079036,-0.417931,1.013093,9.590839
13.578469,32.501221,1.686096,-2.391841,-0.310155,1.071172,9.736338
13.594141,33.714294,2.174377,-2.857234,-0.390388,1.223855,9.813577
13.609838,36.460876,2.296448,-4.032161,-0.211360,1.002914,10.092596
13.625531,41.313171,0.900269,-3.482844,-0.349673,1.190325,10.122534
13.641252,46.424866,0.602722,-2.605464,-0.752036,1.333427,9.966858
13.657024,51.467896,1.281738,-3.154780,-0.670605,1.362766,9.590241
13.672848,53.382874,0.251770,-0.812556,0.072449,1.569935,9.496836
13.688861,55.511475,-1.571655,3.711675,0.171843,1.638792,9.385467
13.704702,58.998108,-1.800537,3.047917,-0.908910,1.595083,9.254339
13.720478,61.302185,0.137329,2.552007,-0.371228,2.188449,9.514199
13.736137,63.827515,-2.212524,5.100224,-0.411943,2.580035,9.610000
13.751732,65.124512,-3.906250,7.686589,-0.211360,2.845882,9.393849
13.767495,68.115234,-3.463745,9.548162,-0.338895,3.315905,9.706400
13.783122,72.723389,-1.838684,8.823369,-0.141905,3.268603,9.165724
13.798742,74.539185,-3.181458,9.876225,1.253793,2.741100,9.141175
13.814369,74.592590,-3.395081,10.852788,-1.193318,3.673361,9.022022
13.829959,75.622559,-1.373291,5.176518,-0.169448,4.182303,9.053158
13.845596,76.232910,-1.907349,5.756352,0.704136,4.600832,8.946580
13.861195,75.737000,-1.152039,4.077886,-1.051414,5.154681,8.754978
13.876896,74.020386,-1.113892,0.347112,0.723296,5.216951,8.556191
13.892560,72.906494,-1.831055,1.819585,0.061073,4.813391,8.126286
13.908245,70.365906,2.166748,-1.644160,-0.071252,5.326523,8.080780
13.923955,70.884705,-1.075745,-0.286128,-0.140109,5.720504,8.208315
13.939742,70.587158,-2.731323,3.734563,-0.139510,5.491181,7.780205
13.955523,67.924500,0.465393,2.048467,-1.723815,5.911507,7.693386
13.971276,62.812805,-0.953674,-0.751521,0.327519,5.468428,7.510167
13.986976,65.582275,-1.831055,1.430486,0.310754,6.096522,7.570641
14.002648,63.659668,-1.083374,0.789617,-0.858016,6.389912,7.465260
14.018349,62.156677,-1.388550,1.209233,-0.037722,6.628217,7.109001
14.034023,61.508179,-0.114441,1.750920,0.282612,6.759943,6.839561
14.049658,58.631897,-0.297546,3.139470,-0.677791,7.048542,6.582695
14.065245,57.922363,-0.869751,0.606511,-0.168849,6.568341,6.665922
14.080854,54.801941,-1.487732,2.223943,0.735271,6.998247,6.604849
14.096979,53.634644,1.152039,2.544377,-0.202978,6.979686,6.609041
14.112606,52.230835,1.701355,2.201055,-0.571811,7.442523,6.394686
14.128279,51.208496,-0.617981,1.323674,0.364043,7.112609,6.310262
14.143869,51.635742,-1.655579,1.041387,-0.324525,7.306007,6.324033
14.159642,50.437927,-0.747681,1.163457,-0.506547,7.338939,6.215659
14.175404,49.957275,-0.373840,2.040837,0.005389,7.556885,5.924065
14.192150,48.362732,0.610352,1.392339,0.320334,7.673643,5.498949
14.207866,45.814514,-1.205444,1.979802,-0.589175,7.868837,5.360637
14.223656,42.472839,-0.556946,1.987432,0.296982,7.945477,5.471406
14.239484,41.084290,-1.274109,2.124761,-0.185614,8.231083,5.431290
14.255218,40.908813,-0.869751,1.644109,-0.010778,7.826325,5.331297
14.270876,40.328979,-0.106812,0.995610,0.063468,8.091574,5.383389
14.286563,40.168762,-1.258850,-0.072505,-0.020956,8.253238,5.233701
14.302196,40.107727,-1.312256,-1.277949,0.173040,12.004436,8.856168
14.317951,41.572571,4.753113,3.093694,-0.496967,9.853110,4.596625
14.333595,35.499573,2.975464,6.687139,-0.310155,9.320218,5.170831
14.349209,33.332825,4.631042,11.966680,-0.196392,8.521480,3.922427
14.364768,27.519226,6.843567,13.561223,-0.108375,8.422086,3.954161
14.380396,22.781372,5.294800,12.287114,0.217348,8.241262,3.887700
14.396034,17.921448,3.860474,9.212468,0.280217,8.055648,4.103251
14.411702,11.505127,1.762390,4.680608,0.190404,8.195158,4.027209
14.427355,7.347107,-1.258850,1.300786,0.285007,8.426876,4.302038
14.443245,3.807068,-2.830505,-0.370051,0.451461,8.439450,4.249946
14.459035,2.136230,-1.724243,-0.858333,0.602946,8.607700,4.173306
14.474751,1.319885,0.816345,-0.812556,0.465233,8.688532,4.096665
14.490470,-0.785828,0.762939,-1.422908,0.089214,8.578960,4.022419
14.506265,-4.920959,-0.572205,-2.780940,0.088616,8.558602,4.099659
14.522000,-8.789062,-3.074646,-5.031611,-0.187410,8.397537,4.388857
14.537631,-11.611938,-5.134583,-5.229976,-0.198787,8.496930,4.689432
14.553252,-11.672974,-4.402161,-5.313899,0.338895,8.328680,4.691827
14.568914,-11.474609,-2.532959,-4.711177,0.000599,8.314909,4.787029
14.584587,-11.528015,-1.960754,-4.375484,-0.177231,8.190368,4.990606
14.600220,-10.490417,-2.120972,-3.620173,-0.020358,8.361612,5.082216
14.615808,-8.293152,-0.778198,-2.429988,-0.094603,8.126301,5.245077
14.631436,-4.180908,-0.839233,-0.629451,-0.398172,8.252040,5.260046
14.647084,-3.753662,0.114441,0.911687,-0.110171,8.165819,5.197176
14.662701,-1.663208,0.892639,1.758550,-0.127535,8.001162,5.127122
14.678386,-1.022339,0.389099,1.552556,0.184417,8.109536,5.310940
14.694131,0.160217,0.549316,0.675176,0.107776,8.027507,5.303156
14.709828,3.547668,-0.419617,-0.240352,0.066462,8.252639,5.209152
14.725488,4.066467,-0.991821,-0.522639,-0.088616,8.328082,5.071438
14.741172,6.072998,-0.328064,0.293706,-0.124541,8.326285,4.884626
14.756988,6.202698,0.495911,1.232122,-0.079634,8.299940,4.733141
14.772760,5.073547,0.686646,1.880620,-0.048499,8.211924,4.637341
14.788489,3.105164,0.709534,2.002690,0.108973,8.247250,4.635544
14.804292,2.014160,0.503540,1.720403,0.155078,8.350236,4.708592
14.819960,1.754761,0.854492,1.102422,0.016166,8.387958,4.714580
14.835572,1.533508,0.411987,0.621770,0.077239,8.416099,4.727154
14.851196,0.656128,0.053406,-0.019099,0.058678,8.346045,4.635544
14.866794,-0.617981,-0.617981,-0.568416,0.102986,8.326285,4.618181
14.882412,-2.067566,-0.694275,-1.010920,0.077838,8.314310,4.684642
14.897997,-3.105164,-0.778198,-1.094844,-0.011975,8.296348,4.768468
14.913559,-3.120422,-0.480652,-0.919368,0.007784,8.302335,4.877441
14.929191,-2.296448,-0.465393,-0.652339,-0.076042,8.128696,4.945700
14.944813,-1.487732,-0.389099,-0.385310,0.022753,8.253836,4.970847
14.960575,-0.785828,-0.274658,-0.171687,0.037123,8.222701,4.979230
14.976280,-0.488281,-0.312805,-0.263240,0.004790,8.200547,4.968452
14.991935,0.038147,-0.366211,-0.240352,-0.015568,8.238269,5.018747
15.007590,0.885010,-0.450134,0.057195,-0.035925,8.279583,5.010365
15.023311,2.204895,0.022888,0.446294,-0.017963,8.240065,4.980427
15.039051,3.036499,0.175476,0.743840,0.005988,8.280780,4.906780
15.054789,3.105164,0.099182,0.850652,0.026345,8.235274,4.822356
15.070536,2.700806,-0.045776,0.682805,0.037722,8.291557,4.779245
15.086172,2.136230,0.045776,0.492070,0.016166,8.334668,4.755295
15.101845,1.762390,0.007629,0.392888,0.027543,8.356223,4.734339
15.117477,1.251221,-0.259399,0.286077,0.021555,8.368198,4.717574
15.133062,0.450134,-0.305176,0.041936,0.044907,8.309521,4.681649
15.148698,-0.358582,-0.450134,-0.156428,0.050295,8.299341,4.718173
15.164273,-1.213074,-0.389099,-0.461604,0.079036,8.294552,4.761283
15.179907,-1.571655,-0.434875,-0.621821,0.025148,8.305329,4.801998
15.195584,-1.564026,-0.457764,-0.530269,-0.012574,8.300539,4.853491
15.211222,-1.365662,-0.473022,-0.423457,0.135319,8.272996,4.873849
15.226918,-1.129150,-0.549316,-0.278499,0.025148,8.257428,4.898398
15.242562,-0.900269,-0.343323,-0.263240,-0.141306,8.248447,4.935521
15.258320,-0.450134,-0.411987,-0.202205,-0.152084,8.266410,4.969051
15.274043,0.122070,-0.305176,-0.087764,-0.010778,8.229287,4.960669
15.289763,1.075745,-0.122070,0.148748,0.001198,8.246052,4.966057
15.305402,1.754761,-0.068665,0.293706,-0.015568,8.267009,4.925941
15.321185,2.182007,0.030518,0.575994,0.013771,8.273595,4.852892
15.336799,1.998901,0.129700,0.499700,0.023950,8.272397,4.810381
15.352475,1.739502,-0.137329,0.431035,0.017963,8.317903,4.789424
15.368057,1.541138,-0.053406,0.408147,0.023950,8.311316,4.782239
15.383762,1.419067,-0.198364,0.232671,0.032932,8.319699,4.772060
15.399428,0.976562,-0.282288,0.087712,0.032333,8.308922,4.752302
15.415058,0.495911,-0.373840,-0.110652,0.049697,8.298742,4.732543
15.430722,-0.335693,-0.297546,-0.240352,0.014969,8.293354,4.739728
15.446299,-0.770569,-0.320435,-0.202205,0.016166,8.292755,4.790023
15.461947,-1.014709,-0.389099,-0.209834,0.010179,8.317903,4.809183
15.477595,-1.075745,-0.518799,-0.339534,0.038919,8.300539,4.861275
15.493208,-0.785828,-0.343323,-0.354792,0.049098,8.281978,4.879238
15.508945,-0.839233,-0.350952,-0.370051,0.024549,8.237071,4.897200
15.524708,-0.366211,-0.381470,-0.408198,-0.011376,8.250842,4.913965
15.540522,0.106812,-0.442505,-0.133540,-0.007784,8.264015,4.924144
15.556223,0.572205,-0.167847,0.141118,-0.013173,8.422086,4.922348
15.571822,1.068115,-0.175476,0.484441,-0.005988,8.129295,4.896003
15.587494,1.342773,-0.122070,0.339482,0.031135,8.264015,4.863670
15.603158,1.312256,-0.038147,0.408147,0.023950,8.302934,4.849300
15.618818,1.327515,-0.076294,0.301335,0.026944,8.292156,4.861275
15.634451,1.541138,-0.228882,0.156377,0.016166,8.297545,4.825949
15.650068,1.304626,-0.183105,0.064824,0.002395,8.301737,4.781042
15.665657,1.121521,-0.213623,0.156377,0.016765,8.297545,4.776851
15.681266,0.633240,-0.137329,0.194524,0.037123,8.319100,4.754697
15.697050,0.007629,-0.175476,0.087712,0.037123,8.303533,4.755295
15.712663,-0.335693,-0.251770,-0.148799,0.041913,8.309521,4.772659
15.728358,-0.518799,-0.358582,-0.194575,0.021555,8.310119,4.804992
15.744128,-0.556946,-0.404358,-0.408198,0.018561,8.284971,4.837325
15.759856,-0.518799,-0.473022,-0.324275,0.016765,8.279583,4.848103
15.775628,-0.511169,-0.488281,-0.278499,0.140707,8.269403,4.859479
15.791479,-0.205994,-0.228882,-0.125911,-0.016166,8.255632,4.875645
15.807213,-0.198364,-0.190735,0.019048,-0.001796,8.280181,4.881034
15.822881,0.213623,-0.221252,0.095342,0.006586,8.276588,4.903188
15.838752,0.488281,-0.144958,0.148748,0.007185,8.275990,4.904984
15.854424,1.029968,-0.312805,0.217412,0.022753,8.272397,4.927138
15.870066,1.205444,-0.312805,0.095342,0.016765,8.277187,4.994199
15.885814,1.411438,-0.244141,0.217412,0.023351,8.282577,4.843911
15.901472,1.190186,-0.205994,0.263188,-0.002994,8.292755,4.822955
15.917075,1.022339,-0.114441,0.308965,0.006586,8.311915,4.822356
15.932677,0.923157,-0.236511,0.263188,0.013771,8.290360,4.782838
15.948221,0.648499,-0.137329,0.209783,0.026345,8.302934,4.795412
15.963813,0.442505,-0.244141,0.011418,0.046104,8.314909,4.791221
15.979369,0.152588,-0.213623,-0.125911,0.017364,8.295749,4.805591
15.995023,-0.045776,-0.366211,-0.217463,0.005389,8.301737,4.809183
16.010650,-0.152588,-0.167847,-0.255610,0.010179,8.314310,4.835528
16.026281,-0.312805,-0.396729,-0.103022,0.014370,8.278385,4.833134
16.042046,-0.335693,-0.328064,-0.148799,0.023950,8.302335,4.865466
16.057722,-0.213623,-0.259399,-0.064875,0.004191,8.265212,4.870855
16.073417,-0.160217,-0.350952,-0.095393,0.027543,8.291557,4.896003
16.089128,0.091553,-0.312805,-0.034358,-0.001796,8.284971,4.896003
16.104866,0.602722,-0.343323,-0.072505,-0.000599,8.271799,4.885824
16.120534,0.793457,-0.335693,0.133489,-0.005988,8.284971,4.864868
16.136265,0.900269,-0.183105,0.110601,0.019160,8.131091,4.855886
16.151927,0.915527,-0.038147,0.194524,0.011975,8.280181,4.823554
16.167502,0.923157,-0.061035,0.286077,0.016166,8.279583,4.824751
16.183085,0.808716,-0.038147,0.133489,0.035925,8.300539,4.827745
16.198808,0.808716,-0.152588,0.156377,0.023950,8.290360,4.814572
16.214408,0.610352,-0.335693,0.019048,0.023351,8.311316,4.808585
16.230029,0.442505,-0.282288,-0.003840,0.026944,8.302335,4.806788
16.245609,0.328064,-0.289917,-0.064875,-0.004790,8.311915,4.808585
16.261273,-0.061035,-0.274658,0.041936,0.022753,8.310119,4.815770
16.276923,0.007629,-0.289917,-0.003840,0.031135,8.291557,4.805591
16.292652,-0.343323,-0.289917,-0.118281,0.028141,8.294552,4.827745
16.308377,-0.312805,-0.228882,-0.064875,0.026345,8.144863,4.860676
16.324036,-0.106812,-0.190735,-0.072505,0.023351,8.281978,4.867861
16.339692,0.083923,-0.343323,-0.087764,0.004790,8.126301,4.864269
16.355305,0.228882,-0.144958,-0.087764,0.012574,8.269403,4.861874
16.370963,0.381470,-0.419617,-0.011470,0.016765,8.305329,4.856485
16.386830,0.526428,-0.152588,0.164006,0.016166,8.277786,4.866664
16.402986,0.663757,-0.114441,0.164006,-0.149090,8.260423,4.848701
16.418609,0.869751,-0.152588,0.156377,0.047302,8.304132,4.866664
16.435518,0.915527,-0.289917,0.011418,0.015568,8.281379,4.851695
16.452272,0.999451,-0.152588,0.064824,0.009580,8.295749,4.814572
16.468409,0.755310,-0.358582,0.041936,0.034728,8.283773,4.819961
16.484294,0.656128,-0.236511,0.148748,0.018561,8.295150,4.801998
16.499945,0.297546,-0.205994,-0.011470,0.030536,8.303533,4.805591
16.515797,0.274658,-0.122070,-0.156428,0.029938,8.307125,4.814572
16.531714,0.114441,-0.198364,-0.087764,0.025746,8.302335,4.793616
16.547610,0.030518,-0.343323,-0.148799,0.014370,8.296348,4.843312
16.563377,-0.022888,-0.274658,-0.103022,0.032932,8.278385,4.826547
16.579082,-0.045776,-0.305176,-0.049617,0.010179,8.287965,4.857084
16.594751,0.038147,-0.274658,-0.049617,0.151485,8.275990,4.879238
16.610469,-0.007629,-0.350952,-0.011470,0.148491,8.301138,4.858281
16.626160,0.205994,-0.259399,0.087712,0.009580,8.278984,4.843911
16.641825,0.358582,-0.114441,0.049565,0.016166,8.283175,4.858880
16.657536,0.587463,-0.236511,-0.019099,0.010778,8.281978,4.867262
